,time,imu_accel_x,imu_accel_y,imu_accel_z,imu_gyro_x,imu_gyro_y,imu_gyro_z,mag_field_x,mag_field_y,mag_field_z,mag_new_data,pos_n,pos_e,pos_d,v_n,v_e,v_d,gnss_new_data
0,0.069999695,0.9056798,-0.4998759,-9.76746,0.002730256,0.0013383321,-0.0022307057,-14.391508,19.456753,43.216537,1,-0.016762499,-0.0707732,-0.36873245,-0.004745938,-0.014146681,-0.09250406,1
1,0.07999992,0.9056798,-0.4998759,-9.76746,0.0060445503,0.0021338195,-0.0007767469,-14.391954,19.52042,43.216454,1,-0.016819604,-0.07094294,-0.36984348,-0.0047723907,-0.014141635,-0.09267176,0
2,0.0899992,0.90568453,-0.49988055,-9.767466,0.0063877436,0.0028841954,0.009871537,-14.391954,19.52042,43.216454,0,-0.01686265,-0.0710702,-0.3706781,-0.004792846,-0.014135731,-0.09279871,0
3,0.09999943,0.9056798,-0.4998759,-9.767462,0.0051673674,0.0024803495,0.011437818,-14.391508,19.456753,43.216537,1,-0.016905867,-0.07119739,-0.37151384,-0.0048106876,-0.014128157,-0.092924505,0
4,0.10999966,0.9056798,-0.4998759,-9.767462,0.0075249686,0.004345006,0.020385504,-14.3899765,19.393,43.29087,1,-0.016043535,-0.07046716,-0.36388636,-0.0023744265,-0.01673583,-0.08821048,1
5,0.119999886,0.9056893,-0.49988526,-9.767469,0.005664867,0.0020149483,0.020419544,-14.393039,19.520504,43.142212,1,-0.016064912,-0.07061783,-0.36468083,-0.0023746446,-0.016744206,-0.08833399,0
6,0.13000011,0.9056798,-0.4998759,-9.767462,0.004265141,0.0024437294,0.020325724,-14.393039,19.520504,43.142212,0,-0.01608627,-0.07076856,-0.36547637,-0.002370796,-0.01675148,-0.08845511,0
7,0.13999939,0.9056798,-0.4998759,-9.767462,0.005247572,-0.0019881101,0.01089088,-14.328363,19.392637,43.217705,1,-0.016114686,-0.07096963,-0.36653876,-0.0023654932,-0.016760746,-0.08861662,0
8,0.14999962,0.90571785,-0.5185414,-9.767499,0.0020923386,0.0023508184,0.002941642,-14.455289,19.457283,43.141216,1,-0.016136214,-0.07112038,-0.36733687,-0.0024510338,-0.016721122,-0.08874379,0
9,0.15999985,0.9056799,-0.51910365,-9.767462,0.0032071115,0.0026766807,-0.004507036,-14.267643,19.519611,43.14438,1,-0.016158944,-0.07127054,-0.36813614,-0.0026010796,-0.016643561,-0.08887343,0
10,0.17000008,0.9056798,-0.5191048,-9.767462,0.0037506092,0.0026890086,-0.017757129,-14.328173,19.51989,43.291786,1,-0.016191367,-0.07146963,-0.36920363,-0.0028033317,-0.016533613,-0.08904627,0
11,0.17999935,0.90583193,-0.5024297,-9.750469,0.0058190897,0.0006489782,-0.023476806,-14.328173,19.51989,43.291786,0,-0.016217226,-0.07161808,-0.37000555,-0.0029173286,-0.01647326,-0.08912276,0
12,0.18999958,0.9056801,-0.49988085,-9.747872,0.0070548006,-0.005701543,-0.030918753,-14.330341,19.520058,43.143295,1,-0.016243564,-0.071766354,-0.3708074,-0.002936544,-0.01647669,-0.08906961,0
13,0.19999981,0.9056798,-0.4998759,-9.747867,0.010323524,0.0008511726,-0.031624675,-14.329895,19.45639,43.14338,1,-0.016734479,-0.06977592,-0.36229336,-0.006818162,-0.012686239,-0.07904479,1
14,0.21000004,0.89137644,-0.514598,-9.748173,0.01267164,-0.001532735,-0.029646862,-14.330341,19.520058,43.143295,1,-0.016796065,-0.069889925,-0.3630045,-0.006878828,-0.01260872,-0.07898028,0
15,0.21999931,0.88621294,-0.51909596,-9.747867,0.011897266,0.0025570388,-0.022784352,-14.330341,19.520058,43.143295,0,-0.016858459,-0.07000228,-0.36371502,-0.006985978,-0.012356959,-0.0789096,0
16,0.22999954,0.8862029,-0.5191048,-9.747867,0.009939794,0.0005522936,-0.015787283,-14.329895,19.45639,43.14338,1,-0.016943121,-0.07014853,-0.3646614,-0.0071235443,-0.012016459,-0.07881504,0
17,0.23999977,0.8862029,-0.5191048,-9.747867,0.00821552,-0.005885618,-0.007802753,-14.391954,19.52042,43.216454,1,-0.017007684,-0.070255525,-0.36537042,-0.0072237733,-0.011761443,-0.07874413,0
18,0.25,0.92508304,-0.5191071,-9.747869,0.006729366,-0.0013401367,0.0025302214,-14.392592,19.456837,43.142296,1,-0.017073857,-0.070361525,-0.3660789,-0.00748528,-0.011801757,-0.0787035,0
19,0.25999928,0.9251568,-0.5191048,-9.747867,0.0006777042,-0.0016283072,0.01064525,-14.392592,19.456837,43.142296,0,-0.017165834,-0.07050361,-0.36702302,-0.007845058,-0.011876752,-0.07865048,0
20,0.2699995,0.9251568,-0.5191048,-9.747867,-0.0027804137,-0.0023735214,0.017837051,-14.393039,19.520504,43.142212,1,-0.017237667,-0.070610754,-0.36773068,-0.008119667,-0.0119325975,-0.0786107,0
21,0.27999973,0.96381587,-0.51911414,-9.767318,0.007075622,-0.005726604,0.017491579,-14.330341,19.520058,43.143295,1,-0.017312499,-0.07071935,-0.3684387,-0.008525356,-0.012230446,-0.078740574,0
22,0.28999996,0.9641107,-0.5191048,-9.76746,0.005021536,0.009625033,0.008159204,-14.518435,19.521399,43.14005,1,-0.017418277,-0.070868954,-0.3693849,-0.009104399,-0.012704369,-0.07896282,0
23,0.29999924,0.9641107,-0.5191048,-9.76746,-0.00391608,0.0010323243,0.000118365366,-14.393039,19.520504,43.142212,1,-0.01750217,-0.07098486,-0.37009636,-0.009538316,-0.013053722,-0.07912958,1
24,0.30999947,0.88743913,-0.50019515,-9.748193,0.014598593,-0.0052128523,-0.010571213,-14.393039,19.520504,43.142212,0,-0.02073866,-0.06815047,-0.36348101,-0.026721144,-0.0055196835,-0.07889928,0
25,0.3199997,0.88620317,-0.49987596,-9.747867,0.0055731963,0.0062889867,-0.023362488,-14.393039,19.520504,43.142212,1,-0.021059895,-0.06821499,-0.3644272,-0.026818112,-0.005231219,-0.0787933,0
26,0.32999992,0.8862029,-0.4998759,-9.747867,0.012651433,-0.003972469,-0.023815028,-14.391316,19.584005,43.29062,1,-0.021301588,-0.06826107,-0.36513603,-0.026889807,-0.0050112167,-0.078713655,0
27,0.3399992,0.8315,-0.499951,-9.729575,0.026901562,-0.0036374347,-0.029369319,-14.393039,19.520504,43.142212,1,-0.02154363,-0.068304636,-0.36584386,-0.026847487,-0.0045792204,-0.07852995,0
28,0.34999943,0.8277729,-0.4998759,-9.728273,0.012282978,-0.0011360507,-0.022915002,-14.393039,19.520504,43.142212,0,-0.021864397,-0.06835432,-0.36678383,-0.026611088,-0.003702699,-0.078128435,0
29,0.35999966,0.82777196,-0.4998759,-9.728273,0.022822766,-0.0051686987,-0.016437126,-14.329895,19.45639,43.14338,1,-0.022103075,-0.06838471,-0.36748564,-0.02642652,-0.0030500654,-0.07782679,0
30,0.3699999,0.8960935,-0.51685137,-9.779861,0.009765005,-0.0049320525,-0.009204312,-14.329257,19.519974,43.217537,1,-0.022340246,-0.06840949,-0.36818498,-0.026364824,-0.0025508057,-0.07769975,0
31,0.3800001,0.9056775,-0.51910424,-9.787053,0.0032308868,0.0057083373,0.003968395,-14.392592,19.456837,43.142296,1,-0.022658601,-0.06843895,-0.36911973,-0.026694652,-0.0023611542,-0.07808973,0
32,0.3899994,0.9056798,-0.5191048,-9.787055,0.0111092,0.007901172,0.010321468,-14.329448,19.392721,43.143463,1,-0.022899963,-0.06845956,-0.3698239,-0.026941076,-0.002219148,-0.078384824,0
33,0.39999962,0.93550396,-0.51970565,-9.768075,0.0010523234,0.010305646,0.018106356,-14.329448,19.392721,43.143463,0,-0.023143595,-0.06847901,-0.3705306,-0.027232034,-0.0021532455,-0.07863129,1
34,0.40999985,0.96410376,-0.51910496,-9.747872,0.0042308657,0.008918363,0.023290649,-14.455289,19.457283,43.141216,1,-0.015785262,-0.06855794,-0.36490402,0.00703724,-0.009377938,-0.08161447,0
35,0.42000008,0.9641107,-0.5191048,-9.747867,0.017794559,0.008924402,0.021845235,-14.51952,19.521482,43.0658,1,-0.015723271,-0.06864399,-0.36563852,0.0067389654,-0.009743159,-0.08160906,0
36,0.42999935,0.9641107,-0.5191048,-9.747867,0.012951236,0.0019268672,0.023715118,-14.454205,19.4572,43.215454,1,-0.015663922,-0.06873332,-0.366373,0.006451317,-0.010108295,-0.081603706,0
37,0.43999958,0.8862415,-0.5191054,-9.787038,0.013687518,0.0028488757,0.017315984,-14.454205,19.4572,43.215454,0,-0.015586173,-0.068853125,-0.36735427,0.006534617,-0.009819144,-0.08195426,0
38,0.4499998,0.88620293,-0.5191048,-9.787055,0.015053138,0.0012281162,0.009237217,-14.330788,19.583727,43.14321,1,-0.015526917,-0.06894034,-0.36809316,0.0066334046,-0.009560045,-0.082236834,0
39,0.46000004,0.8862029,-0.5191048,-9.787055,0.013775973,-0.009338477,0.0027440712,-14.393039,19.520504,43.142212,1,-0.015466747,-0.069025226,-0.36883458,0.006738944,-0.00930475,-0.08251942,0
40,0.4699993,0.88620406,-0.5191059,-9.747906,0.020486386,0.00024166802,-0.008889583,-14.329703,19.583643,43.217453,1,-0.015385216,-0.06913505,-0.36982498,0.0068468987,-0.008999935,-0.08249767,0
41,0.47999954,0.8862029,-0.5191048,-9.747867,0.008615003,0.00184074,-0.014425239,-14.329703,19.583643,43.217453,0,-0.015323215,-0.069215044,-0.37056714,0.0069317613,-0.008777799,-0.08242948,0
42,0.48999977,0.8862029,-0.5191048,-9.747867,0.012580589,-0.0068737487,-0.015249444,-14.391508,19.456753,43.216537,1,-0.015260435,-0.06929303,-0.3713087,0.007020296,-0.008556031,-0.08236127,0
43,0.5,0.92500937,-0.5191095,-9.767389,-0.00033114842,-0.005276028,-0.010248344,-14.330341,19.520058,43.143295,1,-0.019285938,-0.06996722,-0.3665682,-0.0150896115,-0.018244512,-0.08931696,1
44,0.5099993,0.9251565,-0.5191048,-9.76746,-0.013248319,-0.0028348435,-0.0024008844,-14.391508,19.456753,43.216537,1,-0.019422704,-0.070132054,-0.3673727,-0.015304158,-0.01838584,-0.08946154,0
45,0.5199995,0.9251568,-0.5191048,-9.76746,-0.0048805047,-0.0041987617,0.0034371426,-14.456182,19.58462,43.14105,1,-0.019561457,-0.07029814,-0.36817843,-0.01553074,-0.018523628,-0.08960614,0
46,0.52999973,0.9251758,-0.51912355,-9.76748,-0.0060148765,0.0015913468,0.0075372052,-14.456182,19.58462,43.14105,0,-0.019749722,-0.07052151,-0.36925483,-0.015850544,-0.018704109,-0.089799486,0
47,0.53999996,0.9251568,-0.51910484,-9.767462,-0.0073112673,-0.0014582817,0.00858932,-14.391508,19.456753,43.216537,1,-0.019893501,-0.07069044,-0.37006363,-0.016100898,-0.018834213,-0.08994406,0
48,0.54999924,0.9251568,-0.5191048,-9.767462,0.015196752,-0.0035030257,0.008040857,-14.517988,19.45773,43.140133,1,-0.02003957,-0.07086053,-0.37087375,-0.016358584,-0.01896131,-0.090088606,0
49,0.55999947,0.8685899,-0.51914227,-9.748519,0.004673064,0.0075639593,0.0061766785,-14.329895,19.45639,43.14338,1,-0.020237548,-0.07108838,-0.3719556,-0.016566994,-0.01887755,-0.09015551,0
50,0.5699997,0.86672956,-0.51910484,-9.747869,0.016244452,0.0055675944,0.0025660493,-14.329895,19.45639,43.14338,0,-0.020386739,-0.071256824,-0.37276667,-0.01658459,-0.01855481,-0.09007872,0
51,0.5789995,0.8667259,-0.5191048,-9.747867,0.02056065,-0.0013948958,-0.0014796718,-14.391954,19.52042,43.216454,1,-0.020536043,-0.07142235,-0.37357706,-0.016593248,-0.01823152,-0.09000158,0
52,0.58899975,0.8667259,-0.5191048,-9.747867,0.022111027,-0.0018543972,-0.008227085,-14.391954,19.52042,43.216454,1,-0.020685393,-0.07158499,-0.37438676,-0.016593184,-0.017914176,-0.08992447,0
53,0.599,0.88619834,-0.53832924,-9.747867,0.038075898,-0.0008520097,-0.013613314,-14.33098,19.456474,43.069134,1,-0.014775082,-0.07139015,-0.3682694,0.011633697,-0.022577938,-0.09042499,1
54,0.60899925,0.8862029,-0.53833365,-9.747867,0.0152694555,-0.0025936456,-0.015314659,-14.33098,19.456474,43.069134,0,-0.0146704875,-0.07159247,-0.369083,0.011610868,-0.02238267,-0.090372905,0
55,0.6189995,0.8862029,-0.53833365,-9.747867,-0.0024091064,-0.009594711,-0.018737465,-14.330341,19.520058,43.143295,1,-0.014566069,-0.07179305,-0.36989608,0.011593497,-0.02219248,-0.09032082,0
56,0.70899963,0.8472489,-0.57679135,-9.728273,0.04851498,-0.003215301,-0.007360352,-14.393039,19.520504,43.142212,1,-0.013996762,-0.06958323,-0.37129864,0.0073072333,-0.009050535,-0.09325164,1
57,0.71899986,0.88561326,-0.4632396,-9.766867,0.022919906,-0.011175894,-0.012402254,-14.393039,19.520504,43.142212,0,-0.013909229,-0.069687195,-0.37241635,0.0075336345,-0.008534667,-0.093137205,0
58,0.7290001,0.8862017,-0.4614217,-9.76746,0.014727312,-0.011943341,-0.020178083,-14.300626,19.511066,43.218044,1,-0.013838745,-0.06976424,-0.37325495,0.0081300745,-0.0085878195,-0.09322674,0
59,0.73899937,0.8862029,-0.46141812,-9.76746,-0.0044633383,-0.016862066,-0.022598835,-14.300626,19.511066,43.218044,0,-0.013762887,-0.06984181,-0.3740945,0.008725344,-0.008651539,-0.093316495,0
60,0.7489996,0.97757715,-0.51557446,-9.767538,-0.03832275,0.005533174,-0.017991502,-14.30171,19.51115,43.143803,1,-0.0136545915,-0.06994682,-0.3752152,0.009078425,-0.008989789,-0.09348893,0
61,0.7589998,0.9835759,-0.51909786,-9.767462,-0.03538938,0.013718066,-0.015046962,-14.425799,19.51196,43.21588,1,-0.013574287,-0.07003027,-0.37605745,0.0087606935,-0.009551664,-0.0936835,0
62,0.76900005,0.9835876,-0.5191048,-9.767462,-0.036981378,0.01515142,-0.005958038,-14.363404,19.38438,43.142887,1,-0.013496987,-0.070118666,-0.37690145,0.008414474,-0.010088167,-0.09387842,0
63,0.7789993,0.9108534,-0.5338269,-9.767768,-0.019094396,0.0074875704,0.0062551103,-14.363851,19.447989,43.142803,1,-0.0133988615,-0.07024351,-0.3780295,0.0079822475,-0.010551832,-0.09412194,0
64,0.78899956,0.886251,-0.53832483,-9.767462,0.004575772,-0.00049530907,0.011728194,-14.363851,19.447989,43.142803,0,-0.013327598,-0.07033693,-0.37887716,0.007855076,-0.010201367,-0.09424795,0
65,0.7989998,0.886203,-0.53833365,-9.767462,0.029730491,-0.0035092274,0.018904366,-14.426437,19.448435,43.141724,1,-0.013257468,-0.07042713,-0.37972596,0.007730767,-0.009841148,-0.094372995,1
66,0.809,0.86733454,-0.51970565,-9.738683,0.055401333,-0.006646356,0.024197955,-14.363851,19.447989,43.142803,1,-0.017942715,-0.07177454,-0.3711779,-0.016430061,-0.021849813,-0.084763065,0
67,0.8189993,0.84728813,-0.49991462,-9.708739,0.059862565,-0.009169127,0.022812601,-14.364297,19.511597,43.14272,1,-0.018089749,-0.07196963,-0.3719388,-0.01623369,-0.021504078,-0.084319375,0
68,0.8289995,0.847249,-0.49987596,-9.708681,0.052259732,-0.0059929243,0.01831794,-14.364297,19.511597,43.14272,0,-0.018234788,-0.0721617,-0.3726956,-0.015992733,-0.021183142,-0.08386178,0
69,0.83899975,0.8472489,-0.4998759,-9.708681,0.022245485,-0.002618909,0.009996895,-14.426884,19.512043,43.14164,1,-0.018424546,-0.072413504,-0.37369823,-0.015627,-0.020787999,-0.08325163,0
70,0.849,0.94425815,-0.49988055,-9.786755,-0.005423627,0.0032703762,0.00010313978,-14.364743,19.575205,43.142635,1,-0.018565264,-0.0726021,-0.37444842,-0.015662622,-0.021162786,-0.083499685,0
71,0.85899925,0.944633,-0.4998759,-9.787055,-0.029352011,0.0071342476,-0.009381654,-14.302349,19.447626,43.069637,1,-0.018706556,-0.07279454,-0.3752013,-0.015737763,-0.021599993,-0.08382044,0
72,0.86399937,0.9446337,-0.4998759,-9.787055,-0.042853713,0.0067141238,-0.012478872,-14.302349,19.447626,43.069637,0,-0.018801164,-0.07292499,-0.37570485,-0.015799474,-0.021881599,-0.08403441,0
73,0.86399937,0.9446337,-0.4998759,-9.787055,-0.042853713,0.0067141238,-0.012478872,-14.3008175,19.383934,43.14397,1,-0.018801164,-0.07292499,-0.37570485,-0.015799474,-0.021881599,-0.08403441,0
74,0.86399937,0.9446337,-0.4998759,-9.787055,-0.042853713,0.0067141238,-0.012478872,-14.363851,19.447989,43.142803,1,-0.018801164,-0.07292499,-0.37570485,-0.015799474,-0.021881599,-0.08403441,0
75,0.86399937,0.9446337,-0.4998759,-9.787055,-0.042853713,0.0067141238,-0.012478872,-14.362766,19.447905,43.217045,1,-0.018801164,-0.07292499,-0.37570485,-0.015799474,-0.021881599,-0.08403441,0
76,0.8649988,0.9446337,-0.4998759,-9.787055,-0.042853713,0.0067141238,-0.012478872,-14.300626,19.511066,43.218044,1,-0.018801164,-0.07292499,-0.37570485,-0.015799474,-0.021881599,-0.08403441,1
77,0.8739996,0.8280026,-0.5382609,-9.767501,0.04830664,0.003288243,-0.0075030015,-14.300626,19.511066,43.218044,0,-0.015558696,-0.06969994,-0.36874586,-0.0007816718,-0.011396552,-0.08237298,0
78,0.8830004,0.82777244,-0.5383335,-9.767462,0.05835998,-0.0013464608,-0.0013414114,-14.363404,19.38438,43.142887,1,-0.015564853,-0.0697993,-0.36948752,-0.000581519,-0.010683166,-0.08244151,0
79,0.89199924,0.87905115,-0.5216586,-9.750469,0.05103496,-0.0046823155,-0.0041685845,-14.361236,19.384212,43.291378,1,-0.015569102,-0.069892555,-0.37022972,-0.0003804989,-0.01015104,-0.082470484,0
80,0.901,0.8861889,-0.5191097,-9.747872,0.025994325,-0.009171153,-0.00092735054,-14.48794,19.448795,43.21488,1,-0.01557187,-0.06998333,-0.37097168,-0.00023188752,-0.010026273,-0.08240237,0
81,0.91100025,0.8862029,-0.5191048,-9.747867,-0.014112242,-0.027614215,0.0033729342,-14.48794,19.448795,43.21488,0,-0.015573248,-0.07007308,-0.371713,-7.5563126e-05,-0.009919584,-0.08233337,0
82,0.9199991,0.9887612,-0.50498354,-9.85104,-0.053261865,-0.047867835,0.011669699,-14.424269,19.448267,43.290215,1,-0.015573433,-0.07016233,-0.37245423,-2.6878906e-05,-0.010097783,-0.08259732,0
83,0.9289999,1.0224756,-0.49988586,-9.884956,-0.08635582,-0.06658133,0.0066499105,-14.361236,19.384212,43.291378,1,-0.015574745,-0.07025765,-0.37320313,-0.0002780878,-0.011092504,-0.08384002,0
84,0.9379988,1.0225415,-0.4998759,-9.885022,-0.10362518,-0.073695906,0.007872128,-14.2982025,19.32016,43.29254,1,-0.015578731,-0.07036206,-0.37396336,-0.00062206894,-0.012111547,-0.08509788,0
85,0.947999,1.0812768,-0.5434413,-9.782462,-0.108252235,-0.0720298,0.0044164653,-14.296671,19.256468,43.366867,1,-0.015590091,-0.07051578,-0.37499416,-0.0014697092,-0.0135935275,-0.08648959,0
86,0.9560003,1.10015,-0.5573419,-9.748407,-0.09558298,-0.06103672,0.0071559316,-14.296671,19.256468,43.366867,0,-0.01304362,-0.068623126,-0.36663428,0.008882391,-0.011686931,-0.07932054,1
87,0.9649992,1.1004488,-0.55756205,-9.747869,-0.045270365,-0.031980943,0.006626875,-14.170861,19.319101,43.443195,1,-0.012970252,-0.068734854,-0.36734867,0.0074108797,-0.01313988,-0.07942833,0
88,0.974,1.1004493,-0.5575625,-9.747867,0.030679973,-0.015620693,0.008598001,-14.295587,19.256384,43.441116,1,-0.012910367,-0.06885968,-0.36806405,0.005892597,-0.014597478,-0.07953504,0
89,0.9840002,0.80858153,-0.44230312,-9.649995,0.09457341,-0.00721436,0.0022906414,-14.108466,19.191523,43.370193,1,-0.012839031,-0.06903603,-0.36901233,0.0062805978,-0.014575502,-0.07836142,0
90,0.9929991,0.80829555,-0.44218948,-9.6498995,0.08302179,-0.008286942,0.0040337252,-14.108466,19.191523,43.370193,0,-0.012779605,-0.069166176,-0.36971283,0.0069338284,-0.01435083,-0.07731448,0
91,1.0019999,0.808295,-0.44218928,-9.6498995,0.045640506,-0.038684353,-0.009663748,-14.235616,19.319714,43.293625,1,-0.012714072,-0.06929445,-0.37040392,0.0076339827,-0.014161441,-0.07626721,0
92,1.0109987,0.57548916,-0.34642515,-9.806042,0.01874609,-0.050016154,-0.015979355,-14.173031,19.31927,43.294704,1,-0.012634962,-0.069415495,-0.3710901,0.010050311,-0.012661749,-0.07628976,0
93,1.0199995,0.5745733,-0.34604564,-9.806648,-0.047967263,-0.031707484,-0.010506282,-14.173031,19.31927,43.294704,1,-0.01253287,-0.0695222,-0.37177733,0.012632806,-0.011055859,-0.07642418,0
94,1.0299997,0.57457143,-0.3460449,-9.806648,-0.098783664,-0.017542342,-0.008341192,-14.173031,19.31927,43.294704,0,-0.012407732,-0.0696145,-0.37246573,0.015165815,-0.009451421,-0.0765603,0
95,1.0390005,0.8238348,-0.5164195,-9.806667,-0.093804896,-0.00054621324,-0.010854137,-14.234084,19.256021,43.36795,1,-0.01226457,-0.069694474,-0.37315586,0.01610147,-0.008589134,-0.076864965,0
96,1.0460005,0.82771045,-0.5190628,-9.806648,-0.069520965,0.024993466,-0.008605246,-14.173031,19.31927,43.294704,1,-0.016455663,-0.069186956,-0.36669874,-0.0076167164,-0.012346261,-0.07792215,1
97,1.0559988,0.82777196,-0.5191048,-9.806648,-0.015331135,0.059305467,-0.0016146865,-14.357281,19.129614,43.440205,1,-0.016548946,-0.069331616,-0.3676371,-0.007933035,-0.0117505295,-0.07846429,0
98,1.0649996,1.0469638,-0.6633964,-9.769987,0.039096426,0.025289744,0.0034949654,-14.2325535,19.19233,43.442284,1,-0.016624153,-0.06943657,-0.36834496,-0.009243967,-0.011818991,-0.078819975,0
99,1.0749998,1.061467,-0.67291707,-9.767466,0.08113656,0.010571452,0.010937955,-14.2325535,19.19233,43.442284,0,-0.016718334,-0.069545984,-0.36905566,-0.011681934,-0.012496732,-0.079116926,0
100,1.0840006,1.0614954,-0.6729357,-9.767462,0.08443977,-0.035011448,0.013870963,-14.171499,19.255575,43.36903,1,-0.01683427,-0.069661595,-0.36976904,-0.014072597,-0.013200821,-0.0794148,0
101,1.0929995,0.9082666,-0.33658066,-9.801903,0.048075832,-0.06882375,0.0005310287,-14.172585,19.25566,43.29479,1,-0.016969854,-0.06978388,-0.37048513,-0.015312204,-0.01403831,-0.07972952,0
102,1.1009989,0.88624597,-0.28845248,-9.806639,0.023823509,-0.04632147,-0.013534965,-14.173031,19.31927,43.294704,1,-0.017101228,-0.06991509,-0.3712043,-0.0138688255,-0.015130255,-0.08008108,0
103,1.1109991,0.886203,-0.28835845,-9.806648,-0.009474569,-0.03562934,-0.016039524,-14.173031,19.31927,43.294704,0,-0.017219473,-0.07005634,-0.3719266,-0.012409754,-0.016263256,-0.08043252,0
104,1.1929998,0.730383,-0.4229663,-9.708683,0.048362516,-0.019757012,-0.007252075,-14.170861,19.319101,43.443195,0,-0.013688425,-0.069961704,-0.36948845,0.0063118967,-0.010328774,-0.07440341,0
105,1.2019987,0.7303871,-0.4229604,-9.708681,0.004041214,0.008911667,-0.013174959,-14.047411,19.254768,43.29695,1,-0.013626827,-0.070051834,-0.37015542,0.007378347,-0.009702889,-0.07381153,0
106,1.2109995,1.0543438,-0.32215902,-9.8117,-0.03739378,0.02749827,-0.016648056,-14.1062975,19.191355,43.518684,1,-0.01355587,-0.070137784,-0.3708176,0.008271601,-0.010050074,-0.07359371,0
107,1.2209997,1.1004382,-0.30759072,-9.82624,-0.04373321,0.02680961,-0.0019824575,-14.169522,19.128275,43.443447,1,-0.013452954,-0.07027972,-0.37170622,0.008871612,-0.013610137,-0.074506335,0
108,1.2289991,1.1004493,-0.3075872,-9.8262415,-0.042831223,0.02096541,0.006578212,-14.169522,19.128275,43.443447,0,-0.014557368,-0.067667134,-0.36503473,0.0017491813,-0.008304824,-0.07457671,1
109,1.2379999,0.87905115,-0.6947185,-9.792107,-0.032340813,-0.01999619,0.010644563,-14.169969,19.191883,43.443363,1,-0.014541067,-0.06775179,-0.3657089,0.0013973365,-0.0097470125,-0.07516647,0
110,1.2469988,0.8473111,-0.7497436,-9.787065,-0.005995067,-0.04386357,0.008727461,-14.171053,19.191967,43.369114,1,-0.014537797,-0.06783372,-0.36638695,-0.0006849135,-0.008451093,-0.07550429,0
111,1.256999,0.8472489,-0.7498512,-9.787055,0.017003933,-0.033922933,-0.00021116978,-14.2325535,19.19233,43.442284,1,-0.014562966,-0.06792474,-0.36729574,-0.00351415,-0.0067299763,-0.07595154,0
112,1.2680006,0.8644435,-0.37984565,-9.770062,0.02551045,-0.027941046,5.48447e-05,-14.2325535,19.19233,43.442284,0,-0.01460276,-0.06798051,-0.36798072,-0.004701354,-0.0060550417,-0.076189175,0
113,1.276,0.8667214,-0.3269196,-9.767466,0.048976637,0.00237622,0.0007439258,-14.171692,19.128443,43.294956,1,-0.01464023,-0.06803834,-0.36866644,-0.0036131197,-0.0068109967,-0.07618888,0
114,1.2849989,0.8667259,-0.32681623,-9.767462,0.04929845,0.009410521,-0.0024789155,-13.982208,19.190546,43.446606,1,-0.014667661,-0.06810316,-0.3693521,-0.0024774857,-0.007594413,-0.076186016,0
115,1.2930002,0.8667259,-0.32681602,-9.767462,0.032545496,0.01458528,-0.007241095,-14.235169,19.256105,43.29371,1,-0.014684717,-0.068175025,-0.37003776,-0.0013090835,-0.008385881,-0.07618265,0
116,1.3030005,0.76953363,-0.32681838,-9.689241,0.013977168,0.016254572,-0.010651211,-14.171499,19.255575,43.36903,1,-0.014689644,-0.06825102,-0.37072018,0.00022705352,-0.00848106,-0.0754411,0
117,1.3119993,0.76934147,-0.32681602,-9.689086,-0.019544303,-0.003188482,-0.0025451563,-14.171499,19.255575,43.36903,0,-0.014680567,-0.06832756,-0.37139565,0.0017899392,-0.008532758,-0.07466204,0
118,1.3210001,0.7693411,-0.32681602,-9.689086,-0.05245372,-0.032112803,0.0035965533,-14.107828,19.255047,43.44436,1,-0.014534596,-0.06780127,-0.36431816,0.002535848,-0.012145839,-0.07057318,1
119,1.329999,0.7499045,-0.71064466,-9.806421,-0.052949246,-0.035371676,0.005203346,-14.169522,19.128275,43.443447,1,-0.014516919,-0.067903034,-0.36495483,0.0013033618,-0.010424577,-0.07093747,0
120,1.3380003,0.74986416,-0.71139205,-9.806648,-0.03539281,-0.027090194,-0.0022551168,-14.045879,19.191076,43.371277,1,-0.014511549,-0.067988716,-0.36559516,-0.00011776541,-0.008616869,-0.071357384,0
121,1.3480005,0.74986416,-0.7113935,-9.806648,-0.0028944397,0.008660287,-0.0066422466,-14.045879,19.191076,43.371277,0,-0.014519157,-0.06805815,-0.36623925,-0.0015760452,-0.0068101804,-0.07177683,0
122,1.3569994,1.0183,-0.44641435,-9.71023,0.03379739,0.03101166,-0.008285208,-14.105851,19.127747,43.51877,1,-0.014538349,-0.06811731,-0.3668857,-0.002497688,-0.0070770895,-0.07170904,0
123,1.3660002,1.0225333,-0.4421975,-9.708683,0.04966279,0.041379903,-0.0019935223,-14.169522,19.128275,43.443447,1,-0.014563373,-0.06818787,-0.36752942,-0.0030594456,-0.008606875,-0.07134246,0
124,1.374999,1.0225415,-0.44218928,-9.708681,0.04536899,0.03834749,0.00011877753,-14.10802,19.127914,43.370277,1,-0.0145932585,-0.06827216,-0.36816987,-0.0035763402,-0.010126689,-0.07097582,0
125,1.3849993,0.7487229,-0.352129,-9.727126,0.02572539,-0.0007924369,-0.00192054,-14.234277,19.12889,43.293877,1,-0.014625152,-0.06836779,-0.36880693,-0.003084224,-0.010732036,-0.07057121,0
126,1.394,0.730423,-0.3460568,-9.7282715,0.0037247378,-0.031437866,-0.001230371,-14.234277,19.12889,43.293877,0,-0.014645898,-0.06846266,-0.36944002,-0.0015251098,-0.010365176,-0.0701203,0
127,1.4029989,0.7303872,-0.3460449,-9.728273,-0.018405436,-0.037820175,-0.0062183198,-14.170415,19.255491,43.44328,1,-0.0146526145,-0.06855432,-0.37006903,2.8108203e-05,-0.010012183,-0.06966938,1
128,1.4110003,0.84983575,-0.51444775,-9.728428,-0.020149337,-0.048635263,-0.011566252,-14.108466,19.191523,43.370193,1,-0.015166289,-0.06890289,-0.36472768,-0.0031245265,-0.017695673,-0.07384555,0
129,1.4210005,0.8666929,-0.53828704,-9.728273,-0.01973708,-0.022784395,0.0011162997,-14.107828,19.255047,43.44436,1,-0.015197177,-0.06906199,-0.36539117,-0.0037514938,-0.017666014,-0.0735808,0
130,1.4299994,0.8667258,-0.5383336,-9.728273,-0.012124154,-0.0038064031,-0.0019789813,-14.107828,19.255047,43.44436,0,-0.015233917,-0.06922088,-0.36605224,-0.004417556,-0.017645096,-0.07331686,0
131,1.4390001,0.89655,-0.52932006,-9.758276,-0.0030577246,0.0139848,-0.003730707,-14.107382,19.191439,43.444443,1,-0.015276743,-0.06937968,-0.36671105,-0.0051104925,-0.017706128,-0.07314846,0
132,1.447999,0.92510086,-0.5191247,-9.786999,0.017269293,0.04648027,-0.00049817556,-14.043711,19.190908,43.519768,1,-0.015326061,-0.069541104,-0.3673706,-0.005848438,-0.018171517,-0.073433,0
133,1.4579992,0.9251568,-0.5191048,-9.787055,0.015113105,0.019623619,-0.005742786,-14.10802,19.127914,43.370277,1,-0.015401979,-0.06976276,-0.36825418,-0.0067997514,-0.018768944,-0.073830254,0
134,1.4679995,0.7793839,-0.44729692,-9.772666,0.01711018,-0.0011413164,-0.0007816567,-14.10802,19.127914,43.370277,0,-0.015465723,-0.06993321,-0.36891988,-0.0071014157,-0.018925812,-0.07403942,0
135,1.4770002,0.7304829,-0.4230079,-9.767471,0.013032928,-0.0063876985,0.004084209,-14.1062975,19.191355,43.518684,1,-0.015525755,-0.0701006,-0.36958596,-0.006227557,-0.018269975,-0.07398188,0
136,1.4859991,0.73038733,-0.4229605,-9.767462,0.0037129854,-0.035320457,0.0018765279,-14.107382,19.191439,43.444443,1,-0.015577772,-0.070262015,-0.3702515,-0.0053335857,-0.017610261,-0.073919974,0
137,1.4949999,0.7303872,-0.42296037,-9.767462,-0.004400448,-0.028311724,-0.0005575046,-14.10802,19.127914,43.370277,1,-0.015621795,-0.070417576,-0.37091652,-0.0044535836,-0.016971843,-0.073858365,1
138,1.5029993,0.7692673,-0.40377143,-9.669685,-0.0026831517,-0.0049165525,-0.0068375864,-14.109998,19.255215,43.29587,1,-0.014894391,-0.068329185,-0.36465228,-0.0012895877,-0.012142,-0.07323534,0
139,1.5129995,0.7693409,-0.40373158,-9.669493,-0.00078067876,0.0026026089,-0.0038562603,-14.109998,19.255215,43.29587,0,-0.014902473,-0.06843748,-0.36530727,-0.0005076641,-0.011925549,-0.07231697,0
140,1.5229998,0.769341,-0.4037315,-9.669493,0.02074971,0.025470924,-0.00017056368,-14.1069355,19.12783,43.444527,1,-0.014903531,-0.06854379,-0.36595404,0.00027142852,-0.011704259,-0.07139852,0
141,1.5309992,0.9819233,-0.57544875,-9.883348,0.034522176,0.023368161,-0.0013391188,-14.2325535,19.19233,43.442284,1,-0.014904239,-0.068650685,-0.36659935,-0.0006583124,-0.012149253,-0.072233416,0
142,1.54,0.98358434,-0.5767888,-9.88502,0.03699309,0.0022861816,-0.0007243178,-14.171499,19.255575,43.36903,1,-0.014916037,-0.06876269,-0.36725506,-0.0019613781,-0.012747351,-0.07347661,0
143,1.5500002,0.9835876,-0.57679135,-9.885022,0.02349835,-0.006207009,-0.006252295,-14.171499,19.255575,43.36903,0,-0.014939469,-0.06888014,-0.36792195,-0.003243094,-0.013354553,-0.07472085,0
144,1.5589991,0.8515476,-0.35329327,-9.676267,0.0044473056,-0.023732435,-0.006359501,-14.170415,19.255491,43.44328,1,-0.014970771,-0.06900313,-0.3685966,-0.0032306977,-0.013989496,-0.07474596,0
145,1.5679998,0.8472573,-0.34605905,-9.669506,-0.020402264,-0.028971251,-0.0024245805,-14.107382,19.191439,43.444443,1,-0.014995526,-0.06913197,-0.36926535,-0.0022719607,-0.014650389,-0.07386339,0
146,1.5769987,0.8472489,-0.3460449,-9.669493,-0.0280944,-0.009302344,-0.007531959,-14.107382,19.191439,43.444443,1,-0.015011744,-0.06926681,-0.36992612,-0.0013369891,-0.015319749,-0.07297788,0
147,1.5869989,0.8089227,-0.49749103,-9.804525,-0.020115778,0.0171062,-0.0056098704,-14.171053,19.191967,43.369114,1,-0.015010707,-0.06758775,-0.36327705,-0.002129615,-0.012671138,-0.0700482,1
148,1.5969992,0.80829626,-0.49987122,-9.806644,-0.012597628,0.030813549,-0.00478336,-14.171053,19.191967,43.369114,0,-0.015030135,-0.06769995,-0.36390913,-0.0021894737,-0.0122562405,-0.070424385,0
149,1.606,0.808295,-0.49987587,-9.806648,0.012156743,0.026789721,-0.0028645857,-14.232107,19.128721,43.442364,1,-0.015050104,-0.06780823,-0.3645446,-0.0022511147,-0.011812682,-0.07080138,0
150,1.6149988,0.75732017,-0.51685137,-9.806802,0.030258808,0.00016916079,0.0076492354,-14.232107,19.128721,43.442364,0,-0.015070547,-0.067912236,-0.36518347,-0.002270343,-0.011195062,-0.07116844,0
151,1.624999,0.7498787,-0.51910037,-9.806648,0.03814759,-0.015222221,0.008720808,-14.080775,19.25493,43.370598,1,-0.0150906835,-0.06800853,-0.36582556,-0.0022011637,-0.010203927,-0.07151014,0
152,1.6339998,0.74986416,-0.5191048,-9.806648,0.03451381,-0.041434303,0.0030950264,-14.080775,19.25493,43.370598,0,-0.0151101155,-0.06809598,-0.3664707,-0.0021157367,-0.009233272,-0.0718518,0
153,1.6430006,0.8186422,-0.46201906,-9.777871,0.03637825,-0.043784447,-0.0068025696,-14.018938,19.19096,43.29752,1,-0.015128682,-0.06817525,-0.3671188,-0.001981324,-0.008569042,-0.07211687,0
154,1.6519995,0.8860709,-0.40384534,-9.747926,0.009614148,-0.0042919107,-0.012375051,-14.018938,19.19096,43.29752,1,-0.015144893,-0.06825526,-0.36776736,-0.0016175354,-0.0092369085,-0.07199603,0
155,1.6619997,0.8862029,-0.40373152,-9.747867,-0.00031473403,0.015431219,-0.018717304,-14.142358,19.128159,43.369686,1,-0.015161321,-0.06837176,-0.36863026,-0.0011229215,-0.010183724,-0.07181946,0
156,1.6719999,0.9257654,-0.41394687,-9.8072605,-0.009219982,0.041524272,0.0003526773,-14.142358,19.128159,43.369686,0,-0.01516986,-0.06846668,-0.36927634,-0.00082048576,-0.010957636,-0.071875714,0
157,1.6799994,0.96403587,-0.4229428,-9.865316,-0.028206315,0.04220486,0.0014522903,-14.018299,19.254484,43.371677,1,-0.015528289,-0.06997528,-0.36281812,-0.004139348,-0.026048355,-0.07207113,1
158,1.6879988,0.9641096,-0.4229601,-9.865427,-0.028045855,0.020407973,-8.646146e-05,-14.079245,19.191238,43.44493,1,-0.015553217,-0.07013393,-0.36325255,-0.004174337,-0.026841119,-0.07272825,0
159,1.6969995,0.9641107,-0.42296037,-9.865429,-0.014499177,-0.0023258592,0.00128627,-14.142804,19.191767,43.369602,1,-0.015591057,-0.07038074,-0.36391157,-0.0042406614,-0.028009962,-0.07371426,0
160,1.7069998,0.6527849,-0.5190121,-9.728409,-0.0049497457,-0.03218625,0.0001706333,-14.14172,19.191683,43.44385,1,-0.015639637,-0.07070906,-0.36479542,-0.003798242,-0.026351832,-0.073410705,0
161,1.717,0.6524799,-0.5191046,-9.728273,0.016803408,-0.045634102,0.0027634636,-14.14172,19.191683,43.44385,0,-0.015672088,-0.07093889,-0.3654542,-0.0034156612,-0.024725342,-0.07297926,0
162,1.7259989,0.6524794,-0.5191048,-9.728273,0.04787126,-0.026808387,0.01065221,-14.14172,19.191683,43.44385,1,-0.015701134,-0.07115419,-0.36610907,-0.0030415668,-0.023132911,-0.07254838,0
163,1.8629999,0.8650616,-0.36648497,-9.767163,0.043533046,-0.014542128,-0.00014193633,-14.07816,19.191154,43.519173,1,-0.01572579,-0.071362704,-0.3667615,-0.0024004078,-0.023469042,-0.07247858,0
164,1.8709993,0.86672264,-0.36527613,-9.76746,0.02770575,0.015645957,-0.009036144,-14.14325,19.255375,43.36952,1,-0.015744135,-0.07157749,-0.36741385,-0.0016763197,-0.02427107,-0.07249002,0
165,1.8809996,0.8667259,-0.36527377,-9.76746,0.017511418,0.046607256,-0.021766212,-14.14325,19.255375,43.36952,0,-0.015755884,-0.07179954,-0.36806628,-0.0009311516,-0.02507076,-0.072501466,0
166,1.8900003,0.99884194,-0.45845118,-9.824444,-0.014127348,0.038214143,-0.014390907,-14.204641,19.255735,43.442688,1,-0.015762914,-0.072029635,-0.36871994,-0.00091142755,-0.026202446,-0.072896436,0
167,1.8979998,1.0030562,-0.46141234,-9.82624,-0.032867562,0.023867814,-0.001973469,-14.14172,19.191683,43.44385,1,-0.014623588,-0.06678177,-0.36300865,0.002966451,-0.0061343554,-0.075944774,1
168,1.9070005,1.0030645,-0.4614181,-9.8262415,-0.028808376,0.0006299364,0.0077124187,-14.078798,19.12763,43.445015,1,-0.01459923,-0.0668424,-0.3636952,0.0024421094,-0.007338035,-0.076628484,0
169,1.9169989,0.6379476,-0.56965566,-9.771212,-0.032556485,-0.028475285,0.010739724,-14.078798,19.12763,43.445015,0,-0.014578821,-0.06690949,-0.364387,0.0022413684,-0.0068341377,-0.07694508,0
170,1.9259996,0.6135731,-0.5767774,-9.7674675,-0.022819089,-0.029078547,0.0041665463,-14.205279,19.192211,43.368523,1,-0.014557961,-0.066960506,-0.3650792,0.0023862345,-0.004502277,-0.07686024,0
171,1.9350004,0.61352545,-0.57679135,-9.767462,0.016049849,-0.012059149,-0.0032248134,-14.14172,19.191683,43.44385,1,-0.014535937,-0.066990495,-0.36577058,0.0025040063,-0.0021684836,-0.07677335,0
172,1.9439993,0.7991652,-0.44279015,-9.758278,0.040889636,-0.005576037,-0.0036224416,-14.080775,19.25493,43.370598,1,-0.01451276,-0.06700058,-0.36646116,0.0027040693,-0.000529004,-0.07668711,0
173,1.9539995,0.9832274,-0.3078512,-9.747889,0.04933613,0.015682941,-0.0013943173,-14.079245,19.191238,43.44493,1,-0.014485626,-0.06701268,-0.36715087,0.003337161,-0.00221735,-0.076590545,0
174,1.9630003,0.9835869,-0.30758765,-9.747867,0.057120346,0.020287858,-0.004754831,-14.079245,19.191238,43.44493,0,-0.014452554,-0.06704069,-0.36783972,0.004017826,-0.0040087486,-0.07649303,0
175,1.9719992,0.9835876,-0.30758715,-9.747867,0.049191974,0.01404104,-0.0030731438,-14.1406355,19.191599,43.518093,1,-0.014413159,-0.067084834,-0.36852768,0.0047413628,-0.0058054184,-0.076395065,0
176,2.054,0.82777196,-0.36527377,-9.6498995,0.06762209,0.012568833,0.007009665,-14.14172,19.191683,43.44385,1,-0.016429365,-0.0707518,-0.36724302,-0.0047794688,-0.024323152,-0.07085065,0
177,2.0629988,0.71460015,-0.47707915,-9.801787,0.048271224,-0.028909007,0.0100002615,-14.080329,19.191322,43.37068,1,-0.016469263,-0.07097013,-0.36787805,-0.0041458844,-0.023880871,-0.07056502,0
178,2.0719995,0.7109174,-0.48064002,-9.806639,0.029411776,-0.04706224,-0.005304405,-14.14325,19.255375,43.36952,1,-0.016504176,-0.071180314,-0.36851445,-0.003615127,-0.022837734,-0.07085992,0
179,2.0810003,0.71091026,-0.480647,-9.806648,0.016531086,-0.03049732,-0.011308163,-14.14325,19.255375,43.36952,0,-0.017605234,-0.069065735,-0.36394554,-0.0102087585,-0.016749404,-0.078787334,1
180,2.0889997,0.93033034,-0.5097908,-9.660003,-0.018013587,-0.019510953,-0.017220324,-13.95474,19.253956,43.447006,1,-0.01766617,-0.06916505,-0.3644183,-0.0103149945,-0.016627755,-0.07860927,0
181,2.0980005,1.0029227,-0.5190866,-9.610809,-0.045139138,-0.000940499,-0.01627175,-14.079245,19.191238,43.44493,1,-0.01776443,-0.06931991,-0.3651204,-0.011539558,-0.017804252,-0.07740466,0
182,2.1079988,1.0030645,-0.5191048,-9.610711,-0.022891002,0.04367362,-0.010887903,-14.079691,19.254847,43.444847,1,-0.017913109,-0.069543034,-0.36603945,-0.013245609,-0.019374328,-0.07577393,0
183,2.117999,0.9157226,-0.47614023,-9.831447,-0.025363822,0.039807305,-0.0016981864,-14.079691,19.254847,43.444847,0,-0.01803769,-0.06972223,-0.36671686,-0.014246062,-0.020306822,-0.07518345,0
184,2.1269999,0.8862605,-0.46144688,-9.904473,-0.0041666958,0.036622692,0.0027629805,-14.266225,19.128965,43.441776,1,-0.018166564,-0.06990635,-0.3673992,-0.014389766,-0.020609586,-0.07645568,0
185,2.1359987,0.886203,-0.46141818,-9.904615,0.031010015,0.0084865615,0.00630385,-14.14172,19.191683,43.44385,1,-0.01829663,-0.070093036,-0.36809316,-0.0145123955,-0.020875957,-0.07775778,0
186,2.144,0.8862029,-0.46141812,-9.904615,0.032646623,-0.03439848,0.0065354165,-14.204195,19.192127,43.442772,1,-0.018427717,-0.07028209,-0.36879885,-0.014617609,-0.021145262,-0.079059966,0
187,2.1540003,0.6140603,-0.44222915,-9.630843,0.038591284,-0.049402624,0.011760548,-14.080329,19.191322,43.37068,1,-0.018555002,-0.07046567,-0.36950514,-0.013636444,-0.019604556,-0.077822566,0
188,2.1629992,0.6135264,-0.44218934,-9.630306,0.043652356,-0.058019582,-0.0037924603,-14.080329,19.191322,43.37068,0,-0.018673059,-0.07063493,-0.37019938,-0.012597848,-0.018018998,-0.076458916,0
189,2.172,0.61352533,-0.44218928,-9.630306,0.01471467,-0.026577916,-0.0059717037,-14.14325,19.255375,43.36952,1,-0.018781748,-0.07079012,-0.37088138,-0.011556425,-0.016482962,-0.075095885,1
190,2.1809988,0.98070604,-0.3849627,-9.84416,-0.008451072,0.025579726,-0.018411383,-14.142358,19.128159,43.369686,1,-0.017247975,-0.06965985,-0.36710614,-0.0048826216,-0.017655361,-0.08639076,0
191,2.1890001,0.983582,-0.38450354,-9.845832,0.0051392117,0.0495817,-0.013357164,-14.142166,19.255291,43.443768,1,-0.017291527,-0.06982564,-0.36788738,-0.0047964375,-0.019187063,-0.08721289,0
192,2.1990004,0.9835876,-0.38450265,-9.845834,0.0024680137,0.052987587,-0.00243056,-14.142166,19.255291,43.443768,0,-0.017334247,-0.07000508,-0.368676,-0.004693691,-0.020684468,-0.08803638,0
193,2.2079992,0.86857086,-0.6305909,-9.730129,-0.010046119,0.023149047,0.0069136284,-14.1412735,19.128075,43.443935,1,-0.017378744,-0.07019427,-0.3694702,-0.005532955,-0.02093262,-0.08821887,0
194,2.217,0.86672956,-0.6344704,-9.728277,-0.005678635,-0.027244318,0.004746837,-14.140828,19.064466,43.44402,1,-0.017434945,-0.07038031,-0.37026316,-0.0069597834,-0.02041806,-0.088007554,0
195,2.2259989,0.8667259,-0.63447803,-9.728273,-0.011545494,-0.044817716,0.008218925,-14.14172,19.191683,43.44385,1,-0.01750407,-0.07056176,-0.37105423,-0.008405267,-0.019914659,-0.087795265,0
196,2.235999,0.73898435,-0.38217413,-9.875304,-0.029955419,-0.037414193,-0.0024326104,-14.14172,19.191683,43.44385,0,-0.01758291,-0.07073885,-0.37184492,-0.008533017,-0.019450238,-0.08815708,0
197,2.245,0.73040396,-0.36530676,-9.885005,-0.001788857,-0.020593425,-0.00845964,-14.076183,19.063854,43.593586,1,-0.017653871,-0.07091191,-0.3726427,-0.0072364067,-0.019014776,-0.089135356,0
198,2.2539988,0.7303872,-0.36527383,-9.885022,0.032003623,0.025352148,0.0015266709,-14.204195,19.192127,43.442772,1,-0.017713197,-0.071081065,-0.37344933,-0.005945079,-0.018589092,-0.09011737,0
199,2.2629995,0.8186422,-0.42356128,-9.758276,0.036716968,0.029544255,0.0025495954,-14.079245,19.191238,43.44493,1,-0.017761273,-0.07124667,-0.37426424,-0.004939654,-0.01832344,-0.09074995,1
200,2.2720003,0.90550977,-0.4805355,-9.630556,0.041298766,0.025326435,4.982838e-05,-14.267309,19.12905,43.367527,1,-0.016335769,-0.07098098,-0.37107477,0.00031361697,-0.023340318,-0.10282819,0
201,2.2809992,0.90567946,-0.4806468,-9.630306,0.036274217,0.018127298,-0.004650826,-14.267309,19.12905,43.367527,0,-0.016334897,-0.07119354,-0.37199518,-0.000117254305,-0.023912122,-0.101713866,0
202,2.29,0.9056798,-0.480647,-9.630306,0.0037967002,-0.015497217,-0.0060279495,-14.144974,19.191935,43.22111,1,-0.01633778,-0.071411274,-0.37290555,-0.00052299193,-0.024483507,-0.10059957,0
203,2.2989988,0.76960975,-0.53822327,-9.943194,-0.019363314,-0.03892063,-0.005855709,-14.14172,19.191683,43.44385,1,-0.016342817,-0.0716281,-0.3738173,-0.0005899468,-0.023671605,-0.102088906,0
204,2.308999,0.7693411,-0.5383336,-9.943804,-0.016916016,-0.0363793,0.0018204639,-14.018299,19.254484,43.371677,1,-0.016350519,-0.07190524,-0.3750553,-0.00070225506,-0.022523565,-0.10424706,0
205,2.3189993,0.83811915,-0.5004768,-9.817058,-0.036087487,-0.029998692,-0.0032948665,-14.018299,19.254484,43.371677,0,-0.016357409,-0.07210454,-0.37600026,-0.0008549061,-0.021935297,-0.10549885,0
206,2.328,0.90554786,-0.46149442,-9.689336,-0.027505342,0.0098542925,-0.007249281,-14.1412735,19.128075,43.443935,1,-0.016366532,-0.0723047,-0.37694743,-0.0011792362,-0.022577995,-0.10495532,0
207,2.336999,0.9056796,-0.46141827,-9.689086,0.0031944767,0.04159934,-0.0099356,-14.077269,19.063938,43.51934,1,-0.016378703,-0.07251085,-0.37788934,-0.00152596,-0.023238547,-0.104359016,0
208,2.3450003,0.9056798,-0.46141812,-9.689086,0.009980068,0.0595606,-0.0045110933,-14.140189,19.12799,43.518177,1,-0.016393965,-0.07272281,-0.37882587,-0.0018621644,-0.023868263,-0.10376288,0
209,2.3539991,0.8086802,-0.4805766,-9.786676,0.019784605,0.053805523,0.0020370493,-14.140189,19.12799,43.518177,0,-0.018167833,-0.07216455,-0.3764344,-0.012620123,-0.026504107,-0.120453894,1
210,2.3649988,0.8082957,-0.48064685,-9.787055,0.039586008,-0.0010937251,0.006634309,-14.142804,19.191767,43.369602,1,-0.018281465,-0.07240167,-0.37751952,-0.012628825,-0.02619405,-0.120685354,0
211,2.3730001,0.808295,-0.480647,-9.787055,0.029446874,-0.041755226,0.010775249,-14.142804,19.191767,43.369602,1,-0.018395072,-0.07263603,-0.37860674,-0.012616047,-0.025895981,-0.120917,0
212,2.3809996,0.6730309,-0.49973503,-9.787065,0.017626112,-0.065628156,-0.0041210447,-14.080329,19.191322,43.37068,1,-0.018507183,-0.07286424,-0.3796957,-0.0122498,-0.024700422,-0.12107697,0
213,2.3909998,0.6719584,-0.4998756,-9.787055,0.013101461,-0.06308938,-0.012115218,-14.018938,19.19096,43.29752,1,-0.018615456,-0.07308036,-0.380786,-0.011814256,-0.02333361,-0.12121804,0
214,2.4000006,0.67195636,-0.4998759,-9.787055,-0.0038588184,-0.014916929,-0.008038322,-14.018938,19.19096,43.29752,0,-0.018719899,-0.073284365,-0.38187757,-0.011397821,-0.02200953,-0.12135982,0
215,2.4089994,1.0870972,-0.48128545,-9.768111,-0.013879021,0.02926904,-0.007139248,-14.079437,19.064106,43.37085,1,-0.018823417,-0.07348205,-0.3829706,-0.011978454,-0.02267511,-0.12157422,0
216,2.4180002,1.1004235,-0.48064825,-9.767462,0.00016500715,0.05084457,-0.00851664,-14.1412735,19.128075,43.443935,1,-0.018937118,-0.073695585,-0.38406593,-0.013290678,-0.024786612,-0.12184098,0
217,2.426999,1.1004493,-0.48064703,-9.767462,0.0023836843,0.066196635,0.0037106264,-14.1412735,19.128075,43.443935,1,-0.019062595,-0.07392799,-0.3851637,-0.014591088,-0.026864646,-0.12210904,0
218,2.4369993,0.8524225,-0.49536914,-9.841244,-9.866124e-05,0.031721495,-0.0015259649,-14.1412735,19.128075,43.443935,0,-0.019199178,-0.07417792,-0.38626418,-0.015533852,-0.028217101,-0.12254038,0
219,2.446,0.7695033,-0.49986708,-9.865382,0.0001646548,-0.010795046,-0.0025488408,-14.142804,19.191767,43.369602,1,-0.019338742,-0.07442884,-0.38737106,-0.015471258,-0.027530152,-0.123446174,1
220,2.4539995,0.76934135,-0.49987587,-9.865429,0.00013081834,-0.03470396,0.0033745647,-14.081222,19.318539,43.370514,1,-0.01681474,-0.07183723,-0.3798055,-0.0037515862,-0.019333797,-0.116761364,0
221,2.4630003,0.7115189,-0.5004768,-9.787667,-0.006099361,-0.06627757,0.008081448,-14.018938,19.19096,43.29752,1,-0.016847828,-0.0720077,-0.38086006,-0.0035635398,-0.018456953,-0.117422014,0
222,2.4730005,0.6525947,-0.49987707,-9.708835,0.011189048,-0.05709158,-0.002743024,-14.079883,19.127714,43.370766,1,-0.016877756,-0.07216698,-0.3819145,-0.0030858072,-0.016932113,-0.116874956,0
223,2.4819994,0.6524795,-0.4998759,-9.708681,0.024914786,0.0045551974,-0.003751187,-14.079883,19.127714,43.370766,0,-0.016903399,-0.07231254,-0.38296372,-0.0026142856,-0.015424492,-0.116293006,0
224,2.4910002,0.6524794,-0.4998759,-9.708681,0.02259248,0.030289946,-0.008804903,-14.1412735,19.128075,43.443935,1,-0.016924752,-0.07244457,-0.3840077,-0.0021306626,-0.013923013,-0.11571105,0
225,2.499999,1.0599027,-0.40411177,-9.8257885,0.01618971,0.044292092,-0.009750682,-14.077269,19.063938,43.51934,1,-0.016945226,-0.07257675,-0.38505152,-0.0024671594,-0.015648585,-0.116317436,0
226,2.5099993,1.0614952,-0.40373158,-9.8262415,0.016979406,0.043561812,-0.0044336715,-14.204641,19.255735,43.442688,1,-0.016978018,-0.07278082,-0.38645312,-0.0029914272,-0.018360643,-0.117291555,0
227,2.5199995,1.0614954,-0.4037315,-9.8262415,-0.012999605,-0.006546059,0.0023165522,-14.204641,19.255735,43.442688,0,-0.017006597,-0.0729551,-0.387512,-0.0033591618,-0.020366425,-0.11802309,0
228,2.5290003,0.73168534,-0.61442757,-9.845764,-0.021494918,-0.036068633,0.00060661003,-14.1412735,19.128075,43.443935,1,-0.017039353,-0.07313384,-0.38857764,-0.0039368607,-0.019170037,-0.118773036,0
229,2.5369997,0.73038965,-0.61524755,-9.845834,-0.016065126,-0.04779759,4.977726e-05,-14.079883,19.127714,43.370766,1,-0.019357687,-0.07400648,-0.38463402,-0.01790801,-0.02816061,-0.12873706,1
230,2.5460005,0.7303872,-0.61524916,-9.845834,-0.027048059,-0.046194915,-0.0020309007,-14.079245,19.191238,43.44493,1,-0.019522186,-0.07425348,-0.3857961,-0.01865485,-0.026732223,-0.12949565,0
231,2.5559988,0.88559896,-0.4620237,-9.748255,-0.020245198,-0.010644754,-0.006157479,-14.079245,19.191238,43.44493,0,-0.019691817,-0.07449513,-0.3869618,-0.019020071,-0.027075885,-0.12950563,0
232,2.5649996,0.8862016,-0.4614193,-9.747869,0.015217503,0.024367608,-0.00945362,-14.018299,19.254484,43.371677,1,-0.019864528,-0.07474118,-0.38812703,-0.019360503,-0.027601741,-0.1294358,0
233,2.5740004,0.8862029,-0.46141812,-9.747867,0.025054967,0.05103844,-0.0035500731,-14.07816,19.191154,43.519173,1,-0.020040257,-0.0749919,-0.38929164,-0.019688217,-0.028113198,-0.12936594,0
234,2.5829992,0.829636,-0.38694382,-9.842812,0.039755583,0.06343719,-0.0037381474,-14.077714,19.127546,43.519257,1,-0.020217316,-0.075246826,-0.39045691,-0.019453881,-0.028502034,-0.12975848,0
235,2.5929995,0.8277756,-0.3845074,-9.845828,0.062158063,0.029848415,-0.0016487775,-14.1412735,19.128075,43.443935,1,-0.020389393,-0.07550465,-0.391628,-0.018776694,-0.028792469,-0.13049218,0
236,2.6020002,0.82777196,-0.38450265,-9.845834,0.042331565,-0.016855663,0.009070835,-14.1412735,19.128075,43.443935,0,-0.020555133,-0.07576504,-0.3928057,-0.018051328,-0.029082991,-0.13122669,0
237,2.610999,0.7256701,-0.5529055,-9.743122,0.006329159,-0.053058967,0.00806138,-14.14325,19.255375,43.36952,1,-0.020714723,-0.076027416,-0.39398956,-0.017625833,-0.028901443,-0.13165267,0
238,2.62,0.710939,-0.57674474,-9.728303,-0.01087136,-0.074189186,-0.0040793284,-14.078607,19.254763,43.51909,1,-0.020874921,-0.07628145,-0.39517304,-0.017983723,-0.027558466,-0.13133489,0
239,2.63,0.71091026,-0.57679135,-9.728273,-0.04167109,-0.025015075,-0.009827671,-14.079691,19.254847,43.444847,1,-0.019667123,-0.07400895,-0.3886519,-0.013078162,-0.019584352,-0.12654309,1
240,2.6400003,1.0579197,-0.41462287,-9.875304,-0.0478765,0.022337187,-0.015163664,-14.079691,19.254847,43.444847,0,-0.019786887,-0.07418357,-0.38979128,-0.013569093,-0.01996585,-0.12698463,0
241,2.6489992,1.0809274,-0.40375277,-9.885005,-0.019163553,0.06317268,-0.008755632,-14.202664,19.128435,43.517097,1,-0.019911619,-0.074373156,-0.39093983,-0.014153385,-0.022172302,-0.1282533,0
242,2.658,1.0809724,-0.40373155,-9.885022,-0.0009798182,0.086050846,0.004658347,-14.203749,19.12852,43.442856,1,-0.020041613,-0.07458245,-0.3920998,-0.014732922,-0.024334831,-0.12952803,0
243,2.6669989,0.89655,-0.46201906,-9.817058,0.016273953,0.053118553,0.009511217,-14.203749,19.12852,43.442856,0,-0.020176567,-0.07481012,-0.3932709,-0.0151874535,-0.025880422,-0.13056397,0
244,2.676999,0.71127284,-0.51899326,-9.748001,0.032186832,-0.008100984,0.0017605646,-14.230779,19.128618,43.533268,1,-0.020313047,-0.07503787,-0.39444545,-0.015129969,-0.024682878,-0.1304207,0
245,2.6859999,0.71091086,-0.5191046,-9.747867,0.051772486,-0.04953254,0.0001875247,-14.230779,19.128618,43.533268,0,-0.02044883,-0.07525427,-0.39561847,-0.015041564,-0.023420734,-0.13024281,0
246,2.6949987,0.71091026,-0.5191048,-9.747867,0.029781211,-0.0751735,-0.00072140933,-14.046087,19.254665,43.387554,1,-0.020583758,-0.07545956,-0.39678988,-0.014942597,-0.022208303,-0.13006556,0
247,2.8639994,0.6914333,-0.61524916,-9.865429,0.0022282575,-0.07147713,0.0056750164,-14.169727,19.191864,43.459866,1,-0.019228196,-0.07926016,-0.39844117,-0.007292911,-0.0356204,-0.1264025,0
248,2.7139997,0.74986404,-0.4037316,-9.787055,0.008698339,-0.007311364,-0.008556441,-14.108033,19.318636,43.46078,1,-0.020878194,-0.075916,-0.3995245,-0.013052802,-0.021367718,-0.13039885,0
249,2.7230005,0.74986404,-0.4037315,-9.787055,-0.0075477664,0.04091018,-0.007274398,-14.108033,19.318636,43.46078,0,-0.018922936,-0.07722968,-0.39173818,-0.0035166526,-0.03389206,-0.12259824,1
250,2.731,1.075818,-0.44160715,-9.787074,-0.0047665797,0.07217426,-0.009568189,-14.106053,19.191336,43.535347,1,-0.018945398,-0.077436924,-0.39247453,-0.0040018233,-0.035241175,-0.12285584,0
251,2.7399988,1.0809624,-0.44218814,-9.787055,0.0037124343,0.07598562,-0.007773387,-14.230779,19.128618,43.533268,1,-0.018985163,-0.07776373,-0.39358208,-0.004832005,-0.037387997,-0.12326029,0
252,2.7489996,1.0809726,-0.44218928,-9.787055,-0.0033434357,0.0427277,-0.0017593307,-14.231225,19.192226,43.533184,1,-0.019032292,-0.078109644,-0.39469326,-0.0056382124,-0.03948342,-0.123666435,0
253,2.7599993,0.6944861,-0.61390644,-9.864826,-0.007817655,-0.029347291,0.012977545,-14.231225,19.192226,43.533184,0,-0.01910514,-0.07858784,-0.39618206,-0.006395439,-0.039117306,-0.124608,0
254,2.769,0.6914392,-0.61524653,-9.865429,0.006825234,-0.068642266,0.011711785,-14.106053,19.191336,43.535347,1,-0.01916465,-0.07893189,-0.39730757,-0.0068310103,-0.037346397,-0.12550478,0
255,2.8639994,0.6914333,-0.61524916,-9.865429,0.0022282575,-0.07147713,0.0056750164,-14.169727,19.191864,43.459866,1,-0.019228196,-0.07926016,-0.39844117,-0.007292911,-0.0356204,-0.1264025,0
256,2.8730001,0.8046812,-0.39175102,-9.656672,0.008368558,-0.027814854,-0.010019743,-14.168194,19.128172,43.534348,1,-0.019294182,-0.07957634,-0.3995797,-0.0071229306,-0.035097215,-0.1261884,0
257,2.8809996,0.808288,-0.3845168,-9.649911,0.02356633,0.014420937,-0.015316715,-14.106053,19.191336,43.535347,1,-0.019355362,-0.07989376,-0.40071073,-0.006469347,-0.035453297,-0.1251459,0
258,2.8909998,0.808295,-0.38450268,-9.6498995,0.019797644,0.05133253,-0.010653502,-14.106053,19.191336,43.535347,0,-0.019410584,-0.08021444,-0.4018323,-0.005798101,-0.035807483,-0.12410041,0
259,2.8989992,0.94478595,-0.4183034,-9.87293,0.019316113,0.0740159,-0.004443403,-14.169281,19.128256,43.45995,1,-0.020297972,-0.07538555,-0.3914597,-0.011431589,-0.017422974,-0.10454676,1
260,2.9089994,0.96407294,-0.42295128,-9.904555,0.024948217,0.03589577,0.0014369303,-14.169086,19.255388,43.53418,1,-0.020401286,-0.07554732,-0.3924066,-0.011523928,-0.018529315,-0.10588569,0
261,2.9169989,0.9641107,-0.42296037,-9.904615,0.014504801,-0.016375395,0.008483865,-14.106249,19.064203,43.461117,1,-0.020505335,-0.07571899,-0.3933657,-0.011595171,-0.019623842,-0.10723908,0
262,2.926999,0.8478576,-0.5004768,-9.787665,-0.013381756,-0.05271973,0.004715147,-14.106249,19.064203,43.461117,0,-0.020610098,-0.07589997,-0.3943364,-0.01173072,-0.020331921,-0.10822512,0
263,2.9359999,0.73061657,-0.57664233,-9.669723,-0.0131770335,-0.08389399,-0.00040661634,-14.108674,19.255112,43.38647,1,-0.020717701,-0.07607763,-0.39530694,-0.012192248,-0.01912415,-0.107415855,0
264,2.9449987,0.73038757,-0.57679105,-9.669493,-0.023413876,-0.057588313,0.0041182195,-14.04302,19.127281,43.53651,1,-0.020829719,-0.07624421,-0.39626986,-0.012706797,-0.017906114,-0.106554165,0
265,2.9539995,0.7303872,-0.57679135,-9.669493,-0.029397545,-0.0068301116,3.8350416e-05,-14.106694,19.127811,43.461033,1,-0.020946564,-0.07639997,-0.397225,-0.013262979,-0.016716778,-0.10569252,0
266,2.9639997,1.0414122,-0.36568922,-9.884604,0.005110461,0.040967986,-0.00607943,-14.16864,19.19178,43.534264,1,-0.021066612,-0.0765587,-0.39818096,-0.013402329,-0.018643726,-0.106803685,0
267,2.9730005,1.0420173,-0.36527458,-9.885022,0.033207655,0.08940725,-0.008324618,-14.16864,19.19178,43.534264,0,-0.021187726,-0.07673573,-0.3991476,-0.013504139,-0.020695338,-0.1080132,0
268,2.9819994,1.0420187,-0.36527377,-9.885022,0.041298725,0.08456626,-0.0064855306,-14.229692,19.128534,43.607666,1,-0.021309549,-0.07693097,-0.40012515,-0.01355519,-0.022697128,-0.10922408,0
269,2.9910002,0.754448,-0.4977915,-9.634304,0.03886806,0.030470004,-0.0014492344,-14.230779,19.128618,43.533268,1,-0.021431532,-0.07713903,-0.4011092,-0.013536361,-0.022938794,-0.10892224,1
270,2.999999,0.749873,-0.49987182,-9.630314,0.03657102,-0.037687384,0.0057951408,-14.16864,19.19178,43.534264,1,-0.019740354,-0.0759094,-0.39394438,-0.0063617206,-0.022007633,-0.10394786,0
271,3.0089998,0.74986416,-0.49987587,-9.630306,-0.0053781713,-0.09408153,0.0074843965,-14.16864,19.19178,43.534264,0,-0.019797103,-0.07610391,-0.39487433,-0.0062521007,-0.021227,-0.10271407,0
272,3.0180006,0.6951612,-0.46389684,-9.905919,-0.023157189,-0.1034121,-0.0037888577,-14.043467,19.19089,43.536427,1,-0.0198521,-0.07629116,-0.39579636,-0.005818359,-0.020304441,-0.10271688,0
273,3.0269995,0.6914406,-0.46142298,-9.924175,-0.008632398,-0.048766986,-0.0065411245,-14.04302,19.127281,43.53651,1,-0.019900942,-0.07646897,-0.3967268,-0.005041486,-0.019222042,-0.10405183,0
274,3.0369997,0.6914333,-0.46141812,-9.924211,-0.018265588,0.02865835,-0.008545513,-14.170174,19.255472,43.45978,1,-0.019955458,-0.07669114,-0.39798617,-0.0040492066,-0.017811438,-0.1058427,0
275,3.0460005,1.1899408,-0.4425085,-9.69278,-0.0043761693,0.08236201,-0.0052283043,-14.170174,19.255472,43.45978,0,-0.019992588,-0.0768541,-0.39894167,-0.0046838033,-0.01930517,-0.10610262,0
276,3.0549994,1.1978189,-0.4421899,-9.689094,0.016455125,0.09472315,-0.0026377868,-14.166467,19.191612,43.68306,1,-0.020041289,-0.07704141,-0.39989477,-0.0061332486,-0.022319803,-0.10570058,0
277,3.0640001,1.1978343,-0.44218928,-9.689086,0.009227521,0.055390134,0.005766569,-14.231225,19.192226,43.533184,1,-0.020102866,-0.07725559,-0.40084425,-0.0075442586,-0.025277322,-0.10529994,0
278,3.072999,0.61854684,-0.5096405,-9.826395,0.0015216547,0.012916213,0.0016347793,-14.231866,19.128702,43.45887,1,-0.020175977,-0.07749375,-0.40179053,-0.008238289,-0.02656173,-0.10517691,0
279,3.0819998,0.5357795,-0.5190863,-9.845798,0.010992231,-0.05265144,-0.00030052225,-14.231866,19.128702,43.45887,0,-0.01964621,-0.07609429,-0.39613128,-0.0060776174,-0.022825995,-0.10899239,1
280,3.0899992,0.5356201,-0.5191045,-9.845834,0.009766637,-0.09770685,0.0052938107,-14.170174,19.255472,43.45978,1,-0.0196807,-0.076225884,-0.39678633,-0.0054207584,-0.021044582,-0.10935837,0
281,3.099,0.53561753,-0.5191048,-9.845834,0.003157094,-0.09851514,0.0035426167,-14.043467,19.19089,43.536427,1,-0.019725159,-0.07640348,-0.397773,-0.0044656307,-0.018430205,-0.109909385,0
282,3.1079988,0.8077648,-0.4231505,-9.689394,0.018575761,-0.057921175,-0.009741017,-14.170368,19.12834,43.38556,1,-0.019763434,-0.07656875,-0.39875948,-0.004060808,-0.018387893,-0.10927614,0
283,3.117999,0.8082949,-0.42296043,-9.689086,0.0136630535,0.027183134,-0.006051023,-14.104521,19.127644,43.609825,1,-0.019809231,-0.076790355,-0.4000652,-0.0035721743,-0.018555177,-0.108352214,0
284,3.1279993,0.808295,-0.42296037,-9.689086,0.013274409,0.09725779,-0.020273704,-14.104521,19.127644,43.609825,0,-0.019839676,-0.076957874,-0.40103725,-0.0031888005,-0.01866651,-0.107659124,0
285,3.137,1.1387591,-0.40377143,-9.806421,0.023635771,0.099711865,-0.011649041,-14.167554,19.191696,43.60866,1,-0.019871501,-0.07713708,-0.4020084,-0.003908892,-0.02122492,-0.108192794,0
286,3.145999,1.139402,-0.40373158,-9.806648,0.014560181,0.059488352,0.0028223656,-14.167554,19.191696,43.60866,1,-0.01990999,-0.07733992,-0.40298483,-0.0046378616,-0.023846172,-0.10878915,0
287,3.1540003,1.1394032,-0.4037315,-9.806648,0.0046726237,-0.009862147,0.013786796,-14.170174,19.255472,43.45978,1,-0.01995489,-0.07756617,-0.4039666,-0.0053383512,-0.026431924,-0.10938692,0
288,3.165,0.6369681,-0.55637014,-9.7677765,-0.008422346,-0.09625015,0.0044246125,-14.170174,19.255472,43.45978,0,-0.020003099,-0.077801116,-0.40495172,-0.005272658,-0.02527677,-0.109450035,0
289,3.172,0.6330101,-0.55756015,-9.767462,-0.019195143,-0.10317973,0.002175484,-14.1065,19.254944,43.535263,1,-0.021098133,-0.07635574,-0.39932266,-0.0123328315,-0.022067688,-0.11292006,1
290,3.1820002,0.63300246,-0.5575625,-9.767462,-0.03306078,-0.0620418,-0.011366275,-14.106053,19.191336,43.535347,1,-0.021208612,-0.07654564,-0.40033868,-0.012227459,-0.02014088,-0.112860166,0
291,3.1899996,1.0164741,-0.36829707,-9.728906,-0.011283523,-0.0028058244,-0.011735537,-14.107141,19.19142,43.46095,1,-0.021318747,-0.076725416,-0.40135393,-0.012298566,-0.020670092,-0.112709254,0
292,3.1999998,1.0225298,-0.36527967,-9.728275,0.019932088,0.081049055,-0.0064995047,-14.105607,19.127728,43.53543,1,-0.02143016,-0.076920494,-0.40236744,-0.012457839,-0.022677789,-0.11250156,0
293,3.2090006,1.0225415,-0.36527377,-9.728273,0.033788122,0.089897834,-0.00013337964,-14.105607,19.127728,43.53543,0,-0.021542858,-0.07713345,-0.40337908,-0.012580463,-0.024641063,-0.112294875,0
294,3.2179995,0.83522797,-0.46637556,-9.711282,0.035858538,0.06315358,-0.0002787269,-14.230139,19.192142,43.607582,1,-0.021656426,-0.077362865,-0.4043887,-0.012649121,-0.02591808,-0.11200645,0
295,3.2270002,0.80834764,-0.48061916,-9.708685,0.035387874,0.023761898,-0.006940916,-14.232312,19.19231,43.458786,1,-0.021770367,-0.07759487,-0.40539458,-0.012665777,-0.025632234,-0.11151692,0
296,3.2370005,0.80829513,-0.48064697,-9.708681,0.0071571837,-0.053124607,0.0019966,-14.106053,19.191336,43.535347,1,-0.02188432,-0.07782419,-0.40639606,-0.012656057,-0.025329238,-0.111025624,0
297,3.2459993,0.7504728,-0.49086234,-9.8072605,-0.02067164,-0.09534418,0.0035172342,-14.106053,19.191336,43.535347,0,-0.021998115,-0.07805064,-0.40739352,-0.012584167,-0.02487999,-0.110816136,0
298,3.255,0.6915486,-0.4998583,-9.904427,-0.016428074,-0.07979155,0.0016707599,-14.044554,19.190973,43.46203,1,-0.022109462,-0.07826885,-0.40839592,-0.012160218,-0.023603395,-0.11196401,0
299,3.263999,0.6914334,-0.49987584,-9.904615,-0.03718871,-0.053990792,-0.0022572326,-14.043467,19.19089,43.536427,1,-0.023541253,-0.07616149,-0.3994027,-0.020672973,-0.017827328,-0.10147625,1
300,3.2739992,1.0569307,-0.4136464,-9.713884,-0.016625803,0.059192944,-0.013392407,-14.105162,19.06412,43.535515,1,-0.02378755,-0.07636694,-0.40062916,-0.020644542,-0.01724717,-0.102555856,0
301,3.2839994,1.17812,-0.38455957,-9.650024,0.012753361,0.10770774,-0.007831714,-14.105162,19.06412,43.535515,0,-0.02397821,-0.076535895,-0.40154877,-0.021729432,-0.02031842,-0.1017822,0
302,3.2930002,1.1783569,-0.38450277,-9.6498995,0.01782936,0.111612305,0.00012725142,-14.167108,19.128088,43.608746,1,-0.024178574,-0.07673253,-0.40246126,-0.022788554,-0.02337094,-0.10098799,0
303,3.301999,1.1783571,-0.38450265,-9.6498995,0.022618387,0.060411528,0.0023021963,-14.230139,19.192142,43.607582,1,-0.024388244,-0.076956324,-0.40336663,-0.023797916,-0.026353987,-0.10019673,0
304,3.3830004,1.1783571,-0.42296037,-9.845834,0.02109358,0.05515947,0.0036823752,-14.169086,19.255388,43.53418,1,-0.0225851,-0.07937327,-0.4043095,-0.010489959,-0.03764507,-0.10236221,0
305,3.3919992,0.6161122,-0.6250138,-9.743122,-0.0008162597,-0.027168136,0.009059544,-14.107141,19.19142,43.46095,1,-0.022683768,-0.079722054,-0.40523452,-0.01126289,-0.03869549,-0.10292431,0
306,3.4019995,0.53577477,-0.6536509,-9.728303,-0.009220102,-0.08223921,0.008956341,-14.107141,19.19142,43.46095,0,-0.022785848,-0.080056205,-0.40615883,-0.011422676,-0.035545588,-0.102479726,0
307,3.4110003,0.5356178,-0.6537068,-9.728273,-0.033400975,-0.11776501,0.007441244,-14.043913,19.254498,43.536343,1,-0.022889499,-0.080361985,-0.4070791,-0.011620403,-0.032410614,-0.102028295,0
308,3.4199991,0.76964545,-0.37999585,-9.72858,-0.014744497,-0.0872398,-0.0009254235,-14.043662,19.063757,43.462196,1,-0.022994675,-0.0806413,-0.4079953,-0.011507631,-0.030351138,-0.1015987,0
309,3.429,0.84709734,-0.28853726,-9.728273,0.013534928,-0.0075560105,-0.0057604685,-14.042575,19.063673,43.536594,1,-0.023092942,-0.08091868,-0.40890804,-0.010319313,-0.03132716,-0.10122423,0
310,3.4390001,0.8472489,-0.2883583,-9.728273,0.034113303,0.07495614,-0.007732846,-14.167108,19.128088,43.608746,1,-0.023207135,-0.08130281,-0.41011977,-0.008701545,-0.03269899,-0.1007257,0
311,3.447999,1.0228459,-0.43287528,-9.713884,0.038702488,0.10654712,-0.0077362154,-14.167108,19.128088,43.608746,0,-0.023964966,-0.08028787,-0.40411294,-0.0136674885,-0.03455086,-0.10218193,1
312,3.4579992,1.0808591,-0.4805537,-9.708691,0.03625182,0.07786285,0.0026053889,-14.231225,19.192226,43.533184,1,-0.024093416,-0.080607444,-0.40503123,-0.01488427,-0.03647282,-0.101882085,0
313,3.467,1.0809723,-0.48064682,-9.708681,0.0017284715,0.004366782,0.0037568924,-14.16864,19.19178,43.534264,1,-0.024232788,-0.080944225,-0.40594685,-0.01608334,-0.038366087,-0.10158451,0
314,3.4749994,1.0809726,-0.480647,-9.708681,-0.024177413,-0.04362945,-3.7753365e-05,-14.106946,19.318552,43.53518,1,-0.024382913,-0.081298016,-0.4068598,-0.017281294,-0.040252585,-0.101287104,0
315,3.4849997,0.556124,-0.55741465,-9.786904,-0.02267836,-0.10405308,0.00086631114,-14.106946,19.318552,43.53518,0,-0.024536762,-0.08165012,-0.4077715,-0.016866846,-0.037874952,-0.101322405,0
316,3.4940004,0.5550965,-0.5575622,-9.787055,-0.034314115,-0.093855284,0.008589607,-14.106694,19.127811,43.461033,1,-0.02468656,-0.08197952,-0.40868363,-0.016428817,-0.03534023,-0.10137563,0
317,3.5029993,0.5550945,-0.5575625,-9.787055,-0.035552863,-0.03847503,-0.009338115,-14.04302,19.127281,43.53651,1,-0.024832696,-0.08228635,-0.40959626,-0.016053068,-0.032852985,-0.10143053,0
318,3.512,1.0595223,-0.32772207,-9.65044,-0.00449752,0.025459493,-0.006624835,-14.104521,19.127644,43.609825,1,-0.024977515,-0.082590155,-0.4105057,-0.016154848,-0.034943227,-0.10061722,0
319,3.5220003,1.0614918,-0.32681778,-9.6498995,0.020086931,0.09761776,-0.008230641,-14.16864,19.19178,43.534264,1,-0.025123572,-0.082916126,-0.4114072,-0.01629847,-0.03748777,-0.09971225,0
320,3.6039991,1.1783276,-0.42296985,-9.708681,0.014622383,0.122088835,-1.1892089e-05,-14.292279,19.12898,43.606583,1,-0.024861574,-0.080950275,-0.41117606,-0.01377438,-0.025117287,-0.09412974,0
321,3.6139994,1.1783571,-0.4229604,-9.708681,0.021300929,0.081816986,0.008887054,-14.292279,19.12898,43.606583,0,-0.024991266,-0.08118907,-0.4120221,-0.015039269,-0.027938865,-0.09387858,0
322,3.6239996,0.65019685,-0.50723696,-9.760266,0.038994063,0.022807693,-0.0012034785,-14.168194,19.128172,43.534348,1,-0.025131311,-0.081450745,-0.41286597,-0.015706142,-0.029199917,-0.09366368,0
323,3.6309996,0.57471913,-0.5190816,-9.7674465,0.041491587,-0.058147915,-0.000984265,-14.170174,19.255472,43.45978,1,-0.023203172,-0.08048379,-0.40781295,-0.0067042084,-0.028018532,-0.10029675,1
324,3.6400003,0.5745717,-0.5191047,-9.76746,0.01706387,-0.12671115,0.0040365253,-14.044107,19.127365,43.462112,1,-0.023260051,-0.080725305,-0.40871507,-0.0059391963,-0.025664113,-0.100169465,0
325,3.6500006,0.720953,-0.46171862,-9.679595,0.005363451,-0.10985068,-0.0009430142,-14.044107,19.127365,43.462112,0,-0.023310328,-0.08094674,-0.40961567,-0.005295204,-0.023876814,-0.09981007,0
326,3.6589994,0.7692466,-0.44222742,-9.649956,0.0056843804,-0.06599657,-0.0025497356,-14.106053,19.191336,43.535347,1,-0.023356317,-0.08116017,-0.41050923,-0.0049312706,-0.023578808,-0.09875488,0
327,3.742999,0.9178719,-0.34996954,-9.671348,0.015685778,-0.038994543,-0.0033465172,-14.0577345,19.127432,43.490772,1,-0.02577738,-0.08244604,-0.40944755,-0.017178023,-0.025014821,-0.08988819,0
328,3.676999,0.769341,-0.44218928,-9.6498995,-0.0054690726,0.09719535,-0.019780334,-13.980433,19.126835,43.537594,0,-0.023439076,-0.08158033,-0.4122676,-0.0042672744,-0.023093646,-0.09662224,0
329,3.6869993,1.215566,-0.4230402,-9.786524,0.0037416385,0.12105051,-0.011982883,-13.980433,19.126835,43.537594,0,-0.0234824,-0.08180034,-0.41313833,-0.005447026,-0.02597715,-0.09695724,0
330,3.696,1.2173077,-0.42296055,-9.787055,0.0026823224,0.09578794,0.0005951988,-14.246745,19.128855,43.4132,1,-0.023537286,-0.08204826,-0.4140131,-0.006743899,-0.029112406,-0.09744139,0
331,3.704999,1.217311,-0.42296037,-9.787055,-0.0017654434,0.029759143,0.010116491,-14.182825,19.255457,43.56276,1,-0.023603678,-0.082324125,-0.41489223,-0.008005987,-0.032181,-0.09792868,0
332,3.7139997,0.48148525,-0.59064966,-9.787094,0.001984059,-0.058521613,0.010847972,-14.244574,19.128687,43.561844,1,-0.023678262,-0.082616605,-0.41577497,-0.008152144,-0.03137698,-0.09813314,0
333,3.724,0.45771548,-0.59601897,-9.787055,-0.020447258,-0.10380686,0.006834217,-14.0577345,19.127432,43.490772,1,-0.025460897,-0.08197793,-0.4078218,-0.018078081,-0.029051801,-0.09040746,1
334,3.7340002,0.45770973,-0.5960203,-9.787055,-0.011759395,-0.09070052,-0.014247106,-14.0577345,19.127432,43.490772,0,-0.02562123,-0.082223445,-0.40863544,-0.017559262,-0.025513932,-0.090399556,0
335,3.742999,0.9178719,-0.34996954,-9.671348,0.015685778,-0.038994543,-0.0033465172,-14.0577345,19.127432,43.490772,1,-0.02577738,-0.08244604,-0.40944755,-0.017178023,-0.025014821,-0.08988819,0
336,3.7519999,0.9251425,-0.34605256,-9.669497,0.025182558,0.046913594,-0.0034624597,-14.182825,19.255457,43.56276,1,-0.025930561,-0.08267724,-0.4102528,-0.01686054,-0.026369613,-0.089066334,0
337,3.7599993,0.9251568,-0.3460449,-9.669493,0.033554595,0.081081174,-0.0072909896,-14.121268,19.255095,43.489525,1,-0.026080776,-0.08292061,-0.4110507,-0.016514564,-0.027706487,-0.08824406,0
338,3.7699995,0.9800118,-0.45428243,-9.798153,0.048321694,0.10586264,-0.0072479337,-14.121268,19.255095,43.489525,0,-0.02622897,-0.08317569,-0.4118428,-0.016629713,-0.028947497,-0.088056244,0
339,3.8639994,0.9835806,-0.4614042,-9.806632,0.026150798,0.07070214,-0.0023501136,-14.120822,19.191486,43.48961,1,-0.026381357,-0.08344134,-0.41263747,-0.017227067,-0.030076671,-0.088549905,0
340,3.8730001,0.9835876,-0.4614181,-9.806648,-0.0010460789,-0.006465288,-0.008793461,-14.121268,19.255095,43.489525,1,-0.026538933,-0.083716966,-0.41343662,-0.017786687,-0.031165514,-0.08904821,0
341,3.881999,0.7796882,-0.52932006,-9.826854,-0.018107474,-0.072306246,0.0024199705,-14.183464,19.191933,43.488525,1,-0.026701357,-0.08400138,-0.4142403,-0.018231088,-0.031619772,-0.08956576,0
342,3.8919992,0.5749721,-0.59589,-9.845798,-0.039512984,-0.09875145,0.0045603006,-14.183464,19.191933,43.488525,0,-0.026864916,-0.08427448,-0.41504908,-0.018113442,-0.029021949,-0.09016608,0
343,3.9000006,0.5745722,-0.59602,-9.845834,-0.05685134,-0.08366502,-0.0014645554,-14.057096,19.190956,43.565006,1,-0.026586127,-0.0818012,-0.40932027,-0.018206868,-0.0201643,-0.09481276,1
344,3.9840002,0.6719567,-0.4998758,-9.669495,-0.042037234,-0.02291938,-0.012637623,-13.995538,19.190596,43.49177,1,-0.02806713,-0.08376676,-0.41726902,-0.016507015,-0.021830142,-0.09497106,0
345,3.9919996,0.67195636,-0.4998759,-9.669493,-0.024996448,0.030197784,-0.008162931,-14.11865,19.191319,43.638245,1,-0.023558876,-0.082526326,-0.4123146,0.004924437,-0.020884456,-0.10174204,1
346,3.999999,1.0554851,-0.40981564,-9.945105,-0.0191845,0.07887816,-0.0071652164,-14.181932,19.12824,43.562927,1,-0.02352964,-0.08265315,-0.41292673,0.004765643,-0.0216487,-0.10250681,0
347,4.0099993,1.0809664,-0.40373302,-9.963393,-0.004468577,0.114149936,-0.0057737725,-14.181932,19.12824,43.562927,0,-0.023476036,-0.08292943,-0.4141724,0.0041741063,-0.024381762,-0.10511044,0
348,4.019,1.0809726,-0.4037315,-9.963397,0.0268239,0.05139238,0.0027467483,-14.181932,19.12824,43.562927,1,-0.02344032,-0.08315774,-0.41512725,0.003768757,-0.026345285,-0.10707188,0
349,4.027999,0.6281711,-0.53416485,-9.640753,0.036194567,-0.025429366,0.016925542,-14.184104,19.128408,43.414284,1,-0.023406921,-0.08339694,-0.41609445,0.0038142472,-0.025929283,-0.10715538,0
350,4.0369997,0.61355394,-0.5383255,-9.630326,0.033083774,-0.097181305,0.010445677,-14.182379,19.191849,43.562843,1,-0.023370938,-0.08362068,-0.41705298,0.004183002,-0.023795135,-0.10584199,0
351,4.0460005,0.6135254,-0.53833365,-9.630306,0.03948335,-0.13985722,0.0004066692,-13.995984,19.254204,43.491688,1,-0.02333167,-0.083825506,-0.41799963,0.0045362045,-0.021731121,-0.10452562,0
352,4.055999,0.92043966,-0.3702312,-9.750469,0.030233502,-0.07676911,-0.0065040723,-13.995984,19.254204,43.491688,0,-0.023289327,-0.08401373,-0.4189351,0.0048868954,-0.020798335,-0.10362189,0
353,4.065999,0.96402544,-0.34609213,-9.7674265,0.010641554,-0.01606019,-0.022225799,-14.059267,19.191124,43.416363,1,-0.023243554,-0.084208086,-0.41986802,0.005284331,-0.022409827,-0.10370453,0
354,4.0740004,0.96411055,-0.346045,-9.76746,0.010695357,0.060259186,-0.018574687,-14.058181,19.19104,43.49069,1,-0.023194222,-0.08441716,-0.4208018,0.005680363,-0.024052339,-0.10379524,0
355,4.082,0.9641107,-0.3460449,-9.76746,0.0014705731,0.13095544,-0.013074036,-14.183464,19.191933,43.488525,1,-0.023141239,-0.084640875,-0.42173636,0.006101684,-0.025652675,-0.10388661,1
356,4.092,1.0029907,-0.4995778,-9.767464,-0.011587296,0.10689386,-0.00080600113,-14.183464,19.191933,43.488525,0,-0.026364604,-0.08348967,-0.4145795,-0.013097748,-0.027494874,-0.10175609,0
357,4.100999,1.0030645,-0.4998753,-9.767462,-0.011580251,0.03763899,0.0031840482,-14.247191,19.192463,43.413116,1,-0.026486974,-0.08374197,-0.4154961,-0.014093058,-0.02856645,-0.101940155,0
358,4.1099997,1.0030645,-0.4998759,-9.767462,-0.0063005066,-0.036471188,0.00917211,-14.245466,19.255903,43.561676,1,-0.026618272,-0.08400374,-0.4164144,-0.015085172,-0.02960547,-0.10212466,0
359,4.117999,0.40164208,-0.5381881,-9.708915,-0.010148358,-0.12481414,0.011888021,-14.120822,19.191486,43.48961,1,-0.026749874,-0.08425627,-0.41733068,-0.014040744,-0.02625119,-0.10144197,0
360,4.1279993,0.3992834,-0.53833336,-9.708681,-0.005006683,-0.13591033,0.013403562,-13.995091,19.126987,43.491856,1,-0.026870772,-0.08447564,-0.4182402,-0.012835429,-0.022510013,-0.10067111,0
361,4.137,0.3992788,-0.53833365,-9.708681,0.022413956,-0.092757784,0.007658924,-13.995091,19.126987,43.491856,0,-0.026981091,-0.084661745,-0.41914275,-0.011686675,-0.018856442,-0.09990458,0
362,4.145999,1.07034,-0.33013976,-9.727987,0.03794168,-0.014394078,-0.0018656882,-13.994646,19.063377,43.49194,1,-0.027083537,-0.084826596,-0.4200395,-0.01136018,-0.019158352,-0.09949913,0
363,4.1549997,1.0809518,-0.32682252,-9.728273,0.04768557,0.0970067,-0.016301377,-13.994452,19.190512,43.56609,1,-0.02718645,-0.085011184,-0.42093417,-0.011503987,-0.021859627,-0.099312,0
364,4.165,1.0809726,-0.32681605,-9.728273,0.05162766,0.15637702,-0.020947075,-14.307217,19.129133,43.56076,1,-0.027290402,-0.08521992,-0.42182717,-0.011584531,-0.024515431,-0.09912689,0
365,4.1729994,0.953231,-0.543216,-9.746719,0.022284832,0.14375363,-0.016623318,-14.307217,19.129133,43.56076,0,-0.026119722,-0.08353828,-0.4142604,-0.00814928,-0.024179721,-0.09506719,1
366,4.182,0.9446506,-0.5575345,-9.747865,-0.030776143,0.05923127,-0.003444464,-14.246105,19.192379,43.487442,1,-0.026198076,-0.08375766,-0.41511595,-0.009259018,-0.024560431,-0.09505375,0
367,4.190999,0.94463384,-0.5575624,-9.747867,-0.050929904,-0.06888686,0.005489391,-14.308302,19.129217,43.486443,1,-0.0262864,-0.08398012,-0.4159714,-0.010373466,-0.024883058,-0.09504097,0
368,4.2009993,0.450558,-0.4735864,-9.799455,-0.06373548,-0.15529154,0.015036376,-14.11993,19.06427,43.489777,1,-0.026383592,-0.084203824,-0.41682675,-0.010606538,-0.024054023,-0.09504781,0
369,4.21,0.37994003,-0.46144193,-9.806634,-0.052004896,-0.16125007,-0.0027469622,-14.11993,19.06427,43.489777,0,-0.026470277,-0.084404156,-0.41768247,-0.008661564,-0.02046632,-0.095105894,0
370,4.218999,0.3798021,-0.46141815,-9.806648,0.001707515,-0.10805344,-0.0007486283,-13.93092,19.062849,43.567337,1,-0.02653978,-0.08457246,-0.41853872,-0.0067955456,-0.016943352,-0.095170036,0
371,4.2279997,0.86733454,-0.42356128,-9.7190895,0.03636279,0.0049966467,0.0032168436,-14.119737,19.191402,43.563923,1,-0.026593681,-0.08471137,-0.41939533,-0.0056014885,-0.014832855,-0.0950868,0
372,4.2370005,1.3527002,-0.38457894,-9.630478,0.059024006,0.08168687,-0.0052984953,-13.995091,19.126987,43.491856,1,-0.026652081,-0.08486429,-0.42024747,-0.007420057,-0.019255176,-0.0942592,0
373,4.246999,1.3536499,-0.38450268,-9.630306,0.08903719,0.15292582,-0.0091399215,-14.119737,19.191402,43.563923,1,-0.026755856,-0.085131966,-0.42137182,-0.009848362,-0.025344692,-0.09313196,0
374,4.256999,1.0231503,-0.41394687,-9.768075,0.065230295,0.1218785,-0.00798684,-14.119737,19.191402,43.563923,0,-0.026851542,-0.08537892,-0.42220676,-0.011108859,-0.028903903,-0.092627406,0
375,4.2650003,0.6920811,-0.4421341,-9.90435,0.0075263362,0.022492416,-0.0077844625,-14.244574,19.128687,43.561844,1,-0.02646989,-0.079603225,-0.41375583,-0.010203892,-0.004924815,-0.08605418,1
376,4.273,0.6914434,-0.4421884,-9.904612,-0.014148755,-0.046762854,-0.004923454,-14.18391,19.25554,43.48844,1,-0.026529064,-0.07963018,-0.41427442,-0.009518795,-0.004056007,-0.08681885,0
377,4.283,0.6914333,-0.44218928,-9.904615,-0.07939345,-0.15035188,0.0031611691,-14.121462,19.127962,43.415367,1,-0.026635328,-0.079668604,-0.41532537,-0.008212459,-0.0023622722,-0.08834971,0
378,4.293,0.38041288,-0.5573395,-9.650399,-0.09100648,-0.16610022,-0.003844307,-14.121462,19.127962,43.415367,0,-0.026704201,-0.07967265,-0.41611546,-0.0071050106,0.0015299309,-0.08715077,0
379,4.301999,0.37980306,-0.55756205,-9.6498995,-0.050925132,-0.072405785,0.0015091228,-14.056843,19.000216,43.49094,1,-0.02676359,-0.079641044,-0.41689393,-0.0061085606,0.005483891,-0.08583903,0
380,4.311,0.37980184,-0.5575625,-9.6498995,-0.009789572,0.023734964,-0.0041583884,-13.994006,19.126904,43.566174,1,-0.026814377,-0.07957405,-0.4176606,-0.005180998,0.009409428,-0.084529124,0
381,4.3189993,1.3460512,-0.38586405,-9.844315,0.037987128,0.10718324,-0.0054901564,-14.056204,19.06374,43.565174,1,-0.026865514,-0.07949784,-0.41842303,-0.0064755203,0.0066228732,-0.085160434,0
382,4.3289995,1.3536351,-0.3845053,-9.845832,0.09117974,0.15818559,-0.0046698963,-14.056204,19.06374,43.565174,0,-0.026931716,-0.079457626,-0.41919434,-0.008222009,0.0023214652,-0.08624781,0
383,4.3380003,1.3536499,-0.38450265,-9.845834,0.09892002,0.11880966,0.00287358,-14.183018,19.128325,43.48861,1,-0.027013138,-0.07945581,-0.41997546,-0.009853536,-0.0019083263,-0.08734182,0
384,4.4229994,1.2173108,-0.42296043,-9.885022,0.08946634,0.08691895,0.015191192,-14.181487,19.064632,43.56301,1,-0.025522819,-0.08117736,-0.41620085,-0.0040546786,-0.013008871,-0.07771024,0
385,4.430999,0.720953,-0.49536914,-9.753073,0.09061641,-0.007120321,0.012067806,-14.245659,19.12877,43.487526,1,-0.025564304,-0.08130575,-0.41690558,-0.0048233406,-0.01460385,-0.078552544,0
386,4.439,0.55541843,-0.5190584,-9.708767,0.078426085,-0.084387824,0.0028678917,-14.1223545,19.255178,43.4152,1,-0.025604378,-0.081426255,-0.4176097,-0.0040617255,-0.012147298,-0.07789182,0
387,4.447999,0.5550951,-0.5191047,-9.708681,0.026381176,-0.101776466,-0.0042189006,-14.1223545,19.255178,43.4152,0,-0.024502967,-0.08189945,-0.4132186,0.00020060572,-0.019069506,-0.08772679,1
388,4.457999,0.5550945,-0.5191048,-9.708681,-0.048860103,-0.08206905,-0.011802548,-13.995984,19.254204,43.491688,1,-0.024497557,-0.08206065,-0.41400513,0.0009951094,-0.01676052,-0.08705495,0
389,4.467,0.8855585,-0.36557657,-9.865125,-0.071850404,-0.007968153,-0.005650658,-14.056009,19.190872,43.639328,1,-0.024485769,-0.082214594,-0.41479218,0.0016103904,-0.017540284,-0.087889604,0
390,4.4749994,0.88620156,-0.36527437,-9.865429,-0.08686589,0.05345406,-0.0073862923,-14.117312,19.000494,43.638496,1,-0.024468744,-0.08237657,-0.41558725,0.00216097,-0.018449172,-0.08879922,0
391,4.4849997,0.8862029,-0.36527377,-9.865429,-0.0495122,0.07181667,-0.007192015,-14.117312,19.000494,43.638496,0,-0.02444699,-0.08254644,-0.4163905,0.0026689908,-0.019288613,-0.089709915,0
392,4.4940004,1.0204304,-0.57350516,-9.633998,-0.0008351809,0.07864306,-0.0075931624,-14.179955,19.00094,43.637413,1,-0.024425082,-0.082723975,-0.4171985,0.0016665182,-0.02020971,-0.08942962,0
393,4.5029993,1.0225375,-0.57678497,-9.630312,0.045595333,0.020228012,-0.00061415375,-14.181932,19.12824,43.562927,1,-0.024418632,-0.0829102,-0.41799882,-0.0002307492,-0.021170134,-0.08841982,0
394,4.512,1.0225415,-0.57679135,-9.630306,0.07646347,-0.038283583,0.0011979007,-14.118845,19.064186,43.56409,1,-0.024429118,-0.08310502,-0.41879007,-0.0020960073,-0.022129172,-0.08740935,0
395,4.5220003,0.6452135,-0.5023171,-9.85812,0.09124009,-0.061183058,0.0084989155,-14.056649,19.127348,43.56509,1,-0.024452288,-0.08330414,-0.4195751,-0.002516801,-0.021521816,-0.087425664,0
396,4.530999,0.6330262,-0.49988064,-9.865416,0.052652467,-0.0837325,0.0046979343,-14.056649,19.127348,43.56509,0,-0.024471985,-0.08348998,-0.42036545,-0.0018556722,-0.01978678,-0.088203676,0
397,4.5390005,0.63300246,-0.4998759,-9.865429,0.007510535,-0.046200793,-0.012425522,-14.057289,19.063824,43.490856,1,-0.02653543,-0.081214055,-0.4156926,-0.013946263,-0.013163848,-0.097931564,1
398,4.5479994,0.956959,-0.2644724,-9.745572,-0.040575787,-0.016315807,-0.016307946,-14.117312,19.000494,43.638496,1,-0.026658174,-0.08132684,-0.41657707,-0.013257399,-0.012710518,-0.09840807,0
399,4.557,1.0029745,-0.23073767,-9.728307,-0.066830896,0.01543378,-0.009918542,-14.179508,18.937334,43.637497,1,-0.026773224,-0.0814522,-0.4174615,-0.01231876,-0.015161601,-0.098131225,0
400,4.5670004,1.0030645,-0.23067178,-9.728273,-0.058155727,0.055705972,0.0026459026,-14.054671,19.000048,43.63958,1,-0.026880024,-0.081599645,-0.4183434,-0.011419173,-0.0175968,-0.09784949,0
401,4.5759993,0.8965499,-0.42356128,-9.777871,-0.04222908,0.034070943,0.0031075059,-14.054671,19.000048,43.63958,0,-0.02697935,-0.08176789,-0.41922298,-0.0108830705,-0.019404715,-0.09771716,0
402,4.585,0.7890285,-0.6148747,-9.826147,-0.0065875296,0.034957357,0.0010582629,-14.116866,18.936888,43.63858,1,-0.027082171,-0.08193827,-0.42010498,-0.011998002,-0.018407283,-0.09828988,0
403,4.593999,0.7888185,-0.6152484,-9.8262415,0.0362835,0.007592619,-0.004655095,-14.118845,19.064186,43.56409,1,-0.027195374,-0.08209897,-0.42099226,-0.013156415,-0.017302644,-0.098882705,0
404,4.603999,0.68686837,-0.55786294,-9.7236805,0.052835323,-0.029532103,0.0054101516,-14.11993,19.06427,43.489777,1,-0.027361931,-0.08229754,-0.42218313,-0.014390854,-0.01567618,-0.09933527,0
405,4.6139994,0.6525465,-0.53837174,-9.689154,0.06562285,-0.07186461,0.0026703386,-14.11993,19.06427,43.489777,0,-0.027491579,-0.082430914,-0.4230738,-0.014409369,-0.013963789,-0.09858741,0
406,4.623,0.6524795,-0.5383337,-9.689086,0.0429187,-0.06740845,0.0072079543,-13.993114,18.999685,43.56634,1,-0.027621234,-0.082549095,-0.42395765,-0.014402097,-0.01231145,-0.09782461,0
407,4.631999,0.6524794,-0.53833365,-9.689086,0.0020185462,-0.02883518,-0.009708764,-14.057289,19.063824,43.490856,1,-0.024257667,-0.08337221,-0.4176145,0.00083973125,-0.02177994,-0.09826436,1
408,4.6400003,1.060699,-0.21208358,-9.923754,-0.026313392,0.011246897,-0.007175412,-14.056204,19.06374,43.565174,1,-0.02424575,-0.08358037,-0.41850492,0.0018319328,-0.024601594,-0.099660635,0
409,4.6500006,1.061494,-0.21144402,-9.924211,-0.06769425,0.07078261,-0.013625998,-14.056204,19.06374,43.565174,0,-0.02422466,-0.083815366,-0.41940862,0.0028510524,-0.027613066,-0.10116474,0
410,4.6589994,1.0614954,-0.21144278,-9.924211,-0.067241736,0.041699715,-0.011354652,-14.118204,19.12771,43.63833,1,-0.024194507,-0.08407715,-0.42032588,0.0038441143,-0.030552506,-0.102671735,0
411,4.668,0.8296075,-0.55486786,-9.57429,-0.039966438,0.016252862,-0.008059121,-14.117312,19.000494,43.638496,1,-0.02416173,-0.08435502,-0.42124668,0.0032234148,-0.03084366,-0.10159882,0
412,4.6780005,0.82777554,-0.5575573,-9.571529,0.006579668,-0.04472119,-0.00956369,-14.118399,19.000578,43.564175,1,-0.024137264,-0.08463107,-0.42215353,0.0022102941,-0.030501949,-0.09991787,0
413,4.6869993,0.82777196,-0.5575625,-9.571526,0.049119763,-0.07907494,0.016381288,-14.118399,19.000578,43.564175,0,-0.024121996,-0.08490414,-0.42304525,0.001180506,-0.030189084,-0.09823566,0
414,4.697999,0.6345335,-0.57665056,-9.960345,0.049781274,-0.046489492,0.005486556,-14.118399,19.000578,43.564175,0,-0.024113044,-0.08525881,-0.4242213,0.00059091777,-0.028431742,-0.09873433,0
415,4.707,0.6330053,-0.57679105,-9.96339,0.045910206,-0.03864918,0.008567381,-13.91656,19.062717,43.596344,1,-0.02410794,-0.08550587,-0.42511758,0.0005446397,-0.026475968,-0.10043406,0
416,4.7160006,0.63300246,-0.57679135,-9.963397,0.024470279,-0.012060879,-0.008795576,-13.979592,19.12677,43.59518,1,-0.0241032,-0.085735515,-0.42602918,0.00051122945,-0.024559602,-0.102135904,0
417,4.724,0.9252329,-0.3244875,-9.651201,-0.006992567,-0.016101534,-0.008522025,-14.041287,19.0,43.594265,1,-0.024375062,-0.08306397,-0.42145365,-0.00286683,-0.017506326,-0.111604005,1
418,4.734,0.9445959,-0.30762014,-9.630345,-0.037081964,0.031047706,-0.005331501,-14.041287,19.0,43.594265,0,-0.024398778,-0.08322968,-0.42245287,-0.0024043322,-0.019322801,-0.110445336,0
419,4.742999,0.9446337,-0.3075872,-9.630306,-0.06651847,0.041067366,-0.0117335655,-13.977616,18.99947,43.669594,1,-0.024418399,-0.08341168,-0.42344162,-0.0019592198,-0.021115888,-0.10927892,0
420,4.752,0.7232355,-0.44233948,-9.819047,-0.07320449,0.03215379,0.0004982692,-14.163845,18.937117,43.740677,1,-0.024434153,-0.083608374,-0.42442062,-0.0015365664,-0.022050181,-0.108642824,0
421,4.7599993,0.69149536,-0.4613809,-9.845783,-0.043871917,-0.028517555,-0.009445739,-14.03931,18.872702,43.66868,1,-0.02444612,-0.08380216,-0.42540124,-0.0011272852,-0.021000523,-0.1092794,0
422,4.7699995,0.6914334,-0.46141803,-9.845834,-0.006117349,-0.06626287,0.016018484,-14.03931,18.872702,43.66868,0,-0.024454603,-0.08398635,-0.42638767,-0.0007645863,-0.019934708,-0.10992685,0
423,4.864999,0.69204193,-0.4812479,-9.846447,0.042882588,-0.044917244,0.0058059455,-13.915668,18.935501,43.59651,1,-0.024460064,-0.08416107,-0.42737994,-0.00048527404,-0.01888123,-0.11057941,0
424,4.873,0.6914344,-0.4998395,-9.845837,0.043028027,-0.018840078,0.007989107,-13.97934,18.936031,43.521183,1,-0.024464244,-0.084325835,-0.42837813,-0.00044298026,-0.017735591,-0.111242704,0
425,4.881999,0.6914333,-0.4998758,-9.845837,0.061114673,-0.0053765913,-0.0056029735,-13.91503,18.999023,43.670673,1,-0.024468001,-0.0844804,-0.4293823,-0.00038767795,-0.01661599,-0.11190645,0
426,4.8919992,0.6914333,-0.4998759,-9.845837,0.06160672,-0.023983447,-0.00042923476,-13.855061,19.062355,43.52318,1,-0.024471112,-0.084625006,-0.4303924,-0.00029823993,-0.015524288,-0.1125705,0
427,4.901,0.98131466,-0.46172798,-9.709762,0.01212371,0.038121805,0.0012179748,-13.855061,19.062355,43.52318,0,-0.02447664,-0.08476788,-0.4314053,-0.0010427006,-0.016502948,-0.112394005,1
428,4.9089994,0.9835833,-0.46141875,-9.708683,-0.023726761,0.041347906,-0.0036929413,-14.040203,18.999916,43.66851,1,-0.025464559,-0.08398838,-0.42237404,-0.00898085,-0.020773081,-0.10125253,0
429,4.918,0.9835876,-0.46141812,-9.708681,-0.06446538,0.019608557,-0.0018039354,-13.978254,18.935947,43.595432,1,-0.02554976,-0.08418175,-0.42328364,-0.009954082,-0.022190155,-0.10086898,0
430,4.926999,0.6550756,-0.30879834,-9.630927,-0.060208865,-0.060032845,-0.0004856726,-13.975638,18.872171,43.744007,1,-0.025635723,-0.08438172,-0.4241866,-0.008868416,-0.02204026,-0.099683054,0
431,4.9369993,0.65248436,-0.3075895,-9.630306,-0.049336404,-0.042335678,-0.0013368642,-13.975638,18.872171,43.744007,0,-0.025708674,-0.08457782,-0.42507753,-0.0073520844,-0.021538857,-0.09830735,0
432,4.946,0.6524794,-0.30758715,-9.630306,0.0026306596,-0.024283169,0.0023566491,-13.977616,18.99947,43.669594,1,-0.025768237,-0.08476945,-0.42595613,-0.005887765,-0.021047035,-0.096932255,0
433,4.954999,0.780373,-0.46990585,-9.887549,0.023777146,-0.0038204996,0.00011340927,-14.03931,18.872702,43.66868,1,-0.025816891,-0.08495696,-0.42682552,-0.005288436,-0.020663558,-0.09681454,0
434,4.9639997,0.7888016,-0.48062602,-9.904582,0.058136433,-0.027380414,0.00131996,-13.850467,18.87128,43.746166,1,-0.025865862,-0.0851417,-0.42770243,-0.0055925525,-0.020393511,-0.0980507,0
435,4.9749994,0.78881806,-0.480647,-9.904615,0.058512975,0.027591022,-0.0012948067,-13.850467,18.87128,43.746166,0,-0.025935244,-0.08538451,-0.428889,-0.005960943,-0.02008439,-0.099709496,0
436,4.984,0.8265927,-0.48068455,-9.752803,0.07050249,0.019119432,-0.008574559,-13.853975,19.062271,43.597427,1,-0.025990378,-0.08556489,-0.42978978,-0.006342765,-0.020079603,-0.10016525,0
437,4.985999,0.82762456,-0.4806517,-9.748484,0.048536643,0.014561274,-0.0068664267,-13.913498,18.935333,43.745003,1,-0.026009649,-0.0856252,-0.43009022,-0.0064965663,-0.020131866,-0.100122415,0
438,4.9940004,0.8277887,-0.63209325,-9.767183,-0.020658826,-0.03561792,0.010438518,-13.849382,18.871197,43.82041,1,-0.028016917,-0.08159887,-0.41673857,-0.0198876,-0.0067522116,-0.07292117,1
439,5.0029993,0.82777196,-0.6344733,-9.76746,-0.0011669558,-0.020988656,0.0005442719,-13.911521,18.808033,43.819416,1,-0.02820375,-0.08165701,-0.41739517,-0.021631394,-0.006164891,-0.07300267,0
440,5.012,0.82777196,-0.63447803,-9.76746,0.052675847,-0.02788916,0.01465795,-13.788326,18.934443,43.747166,1,-0.028406331,-0.081709884,-0.41805252,-0.023388892,-0.0055898824,-0.07308416,0
441,5.019,0.80861837,-0.44521257,-9.6903305,0.05781017,-0.009249577,0.0057079946,-13.851998,18.934973,43.67184,1,-0.028621908,-0.08175904,-0.41870922,-0.024174104,-0.005497419,-0.07267732,0
442,5.0269995,0.80830014,-0.4422365,-9.689105,0.069434404,0.015552482,0.02216384,-13.913498,18.935333,43.745003,1,-0.028767304,-0.081792444,-0.41914386,-0.024288606,-0.0056341765,-0.07220623,1
443,5.0339994,0.808295,-0.44218937,-9.689086,0.07860098,0.010974147,0.011510388,-13.913498,18.935333,43.745003,0,-0.027672777,-0.08198061,-0.41262597,-0.01785215,-0.01083774,-0.06860924,0
444,5.043,0.6741055,-0.19613855,-9.515518,0.061892927,0.0032742752,0.01593944,-13.789858,18.998133,43.672836,1,-0.027829245,-0.082079515,-0.41323707,-0.016379679,-0.011167344,-0.066799976,0
445,5.05,0.6719899,-0.19227523,-9.512787,0.036236405,0.050636142,-0.010749353,-13.852445,18.998579,43.671757,1,-0.027922677,-0.082147285,-0.41363287,-0.014759937,-0.0114210155,-0.065144174,0
446,5.0579996,0.67195636,-0.19221404,-9.512744,0.026278574,0.051460687,0.010780734,-14.039757,18.93631,43.668594,1,-0.02804448,-0.08225173,-0.41420797,-0.012297209,-0.011783135,-0.06265775,0
447,5.0649996,0.57000655,-0.13482773,-9.630612,-0.0069154124,0.05696674,-0.003072898,-14.039757,18.93631,43.668594,0,-0.028112803,-0.08232281,-0.4145794,-0.010312987,-0.011809385,-0.06132037,0
448,5.072999,0.5356847,-0.115336545,-9.669416,-0.020624131,0.0714602,-0.0021956156,-13.913944,18.99894,43.74492,1,-0.028188622,-0.08242696,-0.41512576,-0.0065252553,-0.011321602,-0.06009632,0
449,5.079999,0.53561854,-0.115299,-9.669493,0.0061905687,0.08939762,-0.00569243,-14.040203,18.999916,43.66851,1,-0.028220171,-0.08249381,-0.41548392,-0.003984881,-0.01095775,-0.05928988,0
450,5.0880003,0.60393906,-0.62020653,-9.738224,0.02986923,0.0386645,-0.0063667214,-14.039757,18.93631,43.668594,1,-0.028240914,-0.08258895,-0.41601253,-0.0015516086,-0.009798021,-0.058368694,0
451,5.0959997,0.61337554,-0.6910403,-9.747717,0.054495215,0.06820863,-0.009276685,-13.978508,19.126686,43.669426,1,-0.028252006,-0.08264266,-0.4163623,-0.0021538609,-0.008100683,-0.058216576,0
452,5.1029997,0.61352503,-0.6921624,-9.747867,0.081695095,0.037638377,-0.022825366,-13.978508,19.126686,43.669426,0,-0.02845579,-0.08015437,-0.409725,-0.0034979219,0.006709104,-0.049613208,1
453,5.110999,0.61352533,-0.6921646,-9.747867,0.071341805,0.04144354,-0.017262224,-13.979592,19.12677,43.59518,1,-0.028478462,-0.080108784,-0.41002223,-0.004058567,0.008483788,-0.049461767,0
454,5.12,1.0209488,-0.53893924,-9.864975,0.031033957,0.046197433,-0.025106374,-14.103236,19.06397,43.667347,1,-0.02852047,-0.0800351,-0.4104713,-0.0052940403,0.0076830336,-0.050402224,0
455,5.1949987,0.8693127,-0.30052653,-9.792107,0.079832256,0.019587532,0.0029406063,-14.107382,19.191439,43.444443,1,-0.030277338,-0.081377536,-0.4067234,-0.014977472,-0.009389524,-0.039992686,0
456,5.1379995,1.0225415,-0.53833365,-9.865429,-0.04829096,0.025484938,-0.023161119,-14.165823,19.064415,43.666264,0,-0.028638083,-0.07991711,-0.4113977,-0.0077603026,0.0054524993,-0.052528046,0
457,5.1449995,1.0609058,-0.40585345,-9.7883,-0.06158709,0.044730652,-0.021489264,-14.105406,19.064138,43.518852,1,-0.028712023,-0.07987447,-0.41187394,-0.0084955385,0.0038265097,-0.053140655,0
458,5.152999,1.0614862,-0.40376467,-9.787074,-0.045281965,0.018694459,-0.013363336,-14.166461,19.00089,43.592106,1,-0.028763898,-0.07985538,-0.41219348,-0.00879465,0.0025372307,-0.053364992,0
459,5.1619997,1.0614954,-0.40373155,-9.787055,-0.021856757,-0.009950353,0.013116657,-14.105212,19.19127,43.592934,1,-0.028845157,-0.079841144,-0.4126753,-0.009268208,0.00062666513,-0.05370109,0
460,5.1710005,0.8889608,-0.5173209,-9.690637,0.0648243,0.0075331745,0.011250262,-14.105212,19.19127,43.592934,0,-0.02893115,-0.07984078,-0.41315842,-0.00988801,-0.00014164245,-0.053441465,0
461,5.179,0.88620824,-0.5191013,-9.68909,0.09764069,-0.006865733,0.013221224,-14.167546,19.000975,43.517857,1,-0.029023163,-0.07984244,-0.41363665,-0.010549008,-0.00023184849,-0.05281645,0
462,5.1869993,0.8862029,-0.5191048,-9.689086,0.11841354,0.019106824,-0.0073417583,-14.10649,19.064222,43.44461,1,-0.030185778,-0.08132279,-0.4064834,-0.015227847,-0.008993166,-0.04014208,1
463,5.1949987,0.8693127,-0.30052653,-9.792107,0.079832256,0.019587532,0.0029406063,-14.107382,19.191439,43.444443,1,-0.030277338,-0.081377536,-0.4067234,-0.014977472,-0.009389524,-0.039992686,0
464,5.2019987,0.866731,-0.26919073,-9.806621,0.022277582,0.017027415,0.0024494291,-14.168438,19.128191,43.51769,1,-0.030404959,-0.08146698,-0.40708464,-0.013369406,-0.010490054,-0.04028654,0
465,5.211999,0.8667259,-0.2691295,-9.806648,-0.03388646,0.041149963,0.00039794255,-14.168438,19.128191,43.51769,0,-0.030517915,-0.08156635,-0.40744853,-0.01173046,-0.011587844,-0.04058561,0
466,5.221999,0.75355405,-0.25053898,-9.749742,-0.059563152,0.027436575,-0.0065482412,-14.230577,19.06503,43.51669,1,-0.030615183,-0.08167413,-0.40781415,-0.00975123,-0.01218431,-0.04053011,0
467,5.2300005,0.7498713,-0.24990177,-9.74787,-0.048616085,0.032449502,0.00041374314,-14.229938,19.128553,43.590855,1,-0.030692978,-0.081784755,-0.4081775,-0.0075402115,-0.012392206,-0.040209666,0
468,5.238,0.74986416,-0.24990052,-9.747867,-0.013759186,0.00087717443,0.009783838,-14.227515,18.937647,43.66535,1,-0.030751016,-0.081897065,-0.40853798,-0.005354635,-0.012558171,-0.039889023,0
469,5.246999,0.6477623,-0.586556,-9.765165,0.04844214,0.005114373,0.0014697174,-14.227515,18.937647,43.66535,0,-0.030790513,-0.082009636,-0.40889567,-0.003907875,-0.011951583,-0.039641265,0
470,5.256999,0.6330312,-0.63438445,-9.767456,0.09326979,0.040297307,0.008709004,-14.294694,19.129168,43.441284,1,-0.030826945,-0.08210629,-0.4092521,-0.0041817143,-0.009518381,-0.03956681,0
471,5.263999,0.6330028,-0.6344766,-9.76746,0.09717323,0.02759481,0.00038815587,-14.167799,19.191715,43.591854,1,-0.030852498,-0.08215851,-0.40948936,-0.0043337597,-0.007888361,-0.039518297,0
472,5.273,0.63300246,-0.63447803,-9.76746,0.08859902,0.081562616,0.015176697,-14.292971,19.192608,43.58969,1,-0.03089231,-0.082218535,-0.40984473,-0.0044968524,-0.005450403,-0.039445862,1
473,5.2799997,0.8857107,-0.55771506,-9.884796,0.011190031,0.043371767,-0.007975221,-14.292971,19.192608,43.58969,0,-0.027876237,-0.083552085,-0.40925425,0.014160634,-0.010137759,-0.05542425,0
474,5.287999,0.8861951,-0.5575649,-9.88502,-0.020161506,0.090747766,-0.008705227,-14.294949,19.319908,43.515274,1,-0.027791986,-0.083612554,-0.40958908,0.013926114,-0.01001798,-0.0561911,0
475,5.297,0.8862029,-0.55756253,-9.885022,-0.09289303,0.044052813,-0.00878377,-14.356004,19.256662,43.588524,1,-0.027668212,-0.08370169,-0.41009995,0.013579912,-0.009779792,-0.057341423,0
476,5.305999,0.76980233,-0.30856833,-9.865511,-0.11311968,0.05241232,0.0026618787,-14.478309,19.003036,43.660942,1,-0.027538376,-0.083789095,-0.41061977,0.015406758,-0.009640311,-0.0581521,0
477,5.312999,0.76934195,-0.30758905,-9.865429,-0.09330202,0.013944774,-0.003088728,-14.415722,19.00259,43.662025,1,-0.027390724,-0.083875015,-0.41114664,0.01740307,-0.009442171,-0.05892717,0
478,5.321,0.7693411,-0.30758718,-9.865429,-0.039297238,0.028705908,0.0129774185,-14.415722,19.00259,43.662025,0,-0.027282404,-0.083931185,-0.41150177,0.018700637,-0.009280257,-0.05944451,0
479,5.3289995,0.75018746,-0.7051028,-9.7690115,0.02950402,0.04717998,0.014116116,-14.354219,19.002228,43.58886,1,-0.027111119,-0.08401013,-0.41203895,0.018679013,-0.007845051,-0.059773162,0
480,5.3380003,0.74986476,-0.7113812,-9.767464,0.092728466,0.0512929,0.03556001,-14.294694,19.129168,43.441284,1,-0.026948359,-0.08407099,-0.41257718,0.017495658,-0.0056740423,-0.05982684,0
481,5.346999,0.74986416,-0.7113935,-9.767462,0.09559282,0.041946076,0.011786016,-14.4198675,19.130058,43.43912,1,-0.026795972,-0.08411227,-0.41311586,0.016384402,-0.0034996858,-0.05988089,0
482,5.3550005,0.88198036,-0.5251514,-9.767499,0.079268076,0.07722644,0.013323447,-14.4198675,19.130058,43.43912,0,-0.027104044,-0.08306697,-0.41127858,0.016817464,0.0056032306,-0.06759742,1
483,5.363,0.8861369,-0.51919925,-9.767462,0.020632586,0.053769104,0.0074844174,-14.5435095,19.067259,43.511284,1,-0.027003288,-0.0830327,-0.4116843,0.016787121,0.005825976,-0.06765391,0
484,5.37,0.88620275,-0.51910496,-9.767462,-0.057400737,0.079611115,0.015013655,-14.5435095,19.067259,43.511284,1,-0.026852343,-0.08297867,-0.41229352,0.016765118,0.0061910683,-0.06773854,0
485,5.3789988,0.8862409,-0.29560667,-9.729536,-0.10745527,0.031864125,0.006584023,-14.60565,19.004095,43.510284,1,-0.026698789,-0.0829227,-0.41290283,0.017745288,0.006035891,-0.067565836,0
486,5.388999,0.88620293,-0.28837243,-9.728275,-0.104506925,0.046609282,0.008450711,-14.60565,19.004095,43.510284,0,-0.026531484,-0.08287078,-0.41350928,0.019425074,0.0055112843,-0.06720149,0
487,5.398,0.8862029,-0.2883583,-9.728273,-0.065260045,0.0064739683,0.023916041,-14.666705,18.940851,43.583538,1,-0.026349366,-0.0828233,-0.41411248,0.02104832,0.005051889,-0.06683794,0
488,5.4070005,0.92043966,-0.5240622,-9.81415,0.009595662,0.041663084,0.02821786,-14.604118,18.940405,43.584618,1,-0.026153795,-0.08277936,-0.41471285,0.021987582,0.0048989034,-0.06677322,0
489,5.4159994,0.92514753,-0.5574971,-9.826218,0.06934945,-0.00082710705,0.027779432,-14.542424,19.067175,43.585533,1,-0.025958596,-0.08273296,-0.41531673,0.021390386,0.00541624,-0.067424476,0
490,5.423999,0.9251568,-0.55756235,-9.8262415,0.118561335,0.07248067,0.007206131,-14.670852,19.068317,43.36063,1,-0.025768682,-0.082681954,-0.4159265,0.020832043,0.005923409,-0.06808214,0
491,5.432,0.9251568,-0.5575625,-9.8262415,0.095922634,0.044169065,0.012572851,-14.670852,19.068317,43.36063,0,-0.025644664,-0.082645394,-0.41633627,0.020513358,0.0062633515,-0.06852088,0
492,5.439,0.88628125,-0.4999909,-9.728467,0.047828767,0.08692951,-0.0066908477,-14.607181,19.067787,43.435963,1,-0.026003124,-0.083922975,-0.41462368,0.021565262,0.0026905234,-0.07395911,1
493,5.4469995,0.88620406,-0.4998777,-9.728277,-0.017730381,0.056200765,0.0016247339,-14.732354,19.06868,43.4338,1,-0.025873402,-0.083905794,-0.41506687,0.021693863,0.0030394422,-0.07377767,0
494,5.4560003,0.8862029,-0.4998759,-9.728273,-0.08011922,0.07585069,-0.014681156,-14.915327,19.006073,43.72762,1,-0.025677342,-0.08387595,-0.4157296,0.021889659,0.0036088882,-0.07350506,0
495,5.464999,1.0414147,-0.27003545,-9.747795,-0.1190304,0.019155405,-0.0013084305,-14.790794,18.941658,43.65562,1,-0.02547517,-0.0838491,-0.41639072,0.023092091,0.002246033,-0.0734229,0
496,5.471999,1.0420173,-0.26913118,-9.747867,-0.09228659,0.023157958,-0.007140472,-14.790794,18.941658,43.65562,0,-0.025261758,-0.083835736,-0.41705126,0.024333244,0.00073826726,-0.073361546,0
497,5.4800005,1.0420187,-0.26912946,-9.747867,-0.04647816,0.026271997,0.009570741,-14.853379,18.942104,43.654537,1,-0.02511342,-0.08383427,-0.41749132,0.025127398,-0.00023634192,-0.07332164,0
498,5.4870005,0.9653471,-0.5720029,-9.921475,0.029155683,0.036149908,0.013318388,-14.854464,18.942188,43.580296,1,-0.024885543,-0.08383917,-0.4181539,0.025097929,-0.00039501136,-0.07427734,0
499,5.4959993,0.9641131,-0.57678205,-9.924205,0.09700764,0.062719725,0.029120533,-14.797111,19.069292,43.28423,1,-0.024663026,-0.08383988,-0.41882947,0.024367217,0.00024387967,-0.07585372,0
500,5.5059996,0.9641108,-0.57679135,-9.924211,0.09327225,0.06912101,0.010530985,-14.797111,19.069292,43.28423,0,-0.024446694,-0.08383478,-0.41951925,0.023720434,0.0008896241,-0.07743194,0
501,5.5150003,1.0800691,-0.57680076,-9.652052,0.07389492,0.09492916,0.018387288,-14.796471,19.132816,43.358383,1,-0.024238082,-0.08382721,-0.42021582,0.02258037,0.0006842597,-0.07710746,0
502,5.5220003,1.0809585,-0.5767915,-9.649933,0.018324712,0.062098075,0.017751487,-14.79341,19.005432,43.507042,1,-0.024105044,-0.08382388,-0.42067692,0.021778345,0.00043290085,-0.07659292,1
503,5.5290003,1.0809726,-0.5767914,-9.6498995,-0.040205985,0.062934555,0.002032728,-14.857526,19.06957,43.431637,1,-0.026641592,-0.084840715,-0.41814482,0.012392862,0.0003188066,-0.0726166,0
504,5.5369997,0.96182823,-0.25726157,-9.941509,-0.09202249,0.031041807,-0.0025727758,-14.857526,19.06957,43.431637,0,-0.026568051,-0.084839545,-0.41858017,0.012661246,2.6230133e-05,-0.07288967,0
505,5.5439997,0.9446674,-0.21153228,-9.982912,-0.10996778,0.07350923,0.0077729193,-15.043756,19.007215,43.502716,1,-0.026443228,-0.084841944,-0.41924474,0.015096063,-0.00054092205,-0.07480603,0
506,5.551999,0.9446343,-0.21144417,-9.982992,-0.090348735,0.026087055,0.03317941,-15.104173,19.007494,43.65013,1,-0.026347868,-0.08484622,-0.4196974,0.016705249,-0.0008688064,-0.07609532,0
507,5.558999,0.92774355,-0.5649236,-9.743122,-0.03581797,0.03641934,0.016378863,-14.97983,18.815947,43.50405,1,-0.026188314,-0.08485533,-0.42038995,0.018116131,-0.00079822,-0.07735732,0
508,5.568,0.92516184,-0.61515087,-9.708747,0.022790695,0.017760437,0.01663021,-15.107618,18.880615,43.353313,1,-0.026029442,-0.084856555,-0.42108458,0.01719267,0.00054024206,-0.07699621,0
509,5.5789995,0.9251568,-0.6152489,-9.708681,0.057777505,0.019272441,0.038256716,-15.107618,18.880615,43.353313,0,-0.025878893,-0.084845595,-0.4217759,0.016268017,0.001896384,-0.076621406,0
510,5.5859995,0.9253089,-0.4134962,-10.00029,0.058591485,-0.013351936,0.032127175,-15.107618,18.880615,43.353313,0,-0.025735574,-0.0848228,-0.4224651,0.015990514,0.003006797,-0.0770895,0
511,5.5929995,0.9251591,-0.38495567,-10.041125,0.05907834,0.0027045293,0.022892118,-14.795384,18.91765,43.32968,1,-0.02563726,-0.08480373,-0.42293257,0.016794425,0.003351681,-0.078747444,0
512,5.600999,0.9251568,-0.38450354,-10.041773,-0.011492109,-0.08225008,0.04962056,-14.793658,18.980907,43.47824,1,-0.025879951,-0.08596006,-0.4236272,0.022481408,0.0054182387,-0.08922757,1
513,5.609,0.9251568,-0.38450265,-10.041773,-0.030613625,-0.10374726,0.08093957,-14.793658,18.980907,43.47824,0,-0.025742548,-0.08592663,-0.42416757,0.023316402,0.005719688,-0.09090569,0
514,5.617999,0.44013953,-0.4611224,-10.197915,-0.09381379,-0.2234905,0.08110232,-14.855158,18.98127,43.551476,1,-0.02552116,-0.085857086,-0.42500094,0.025963198,0.00995496,-0.09433334,0
515,5.6260004,0.43823642,-0.46141756,-10.198522,-0.13080083,-0.23834221,0.05496827,-14.602837,18.85255,43.63029,1,-0.025275474,-0.08574707,-0.4258658,0.028614644,0.014479455,-0.09786497,0
516,5.6349993,0.4382327,-0.46141812,-10.198522,-0.19765638,-0.36371025,0.05777676,-14.537633,18.78851,43.780098,1,-0.025006805,-0.0855969,-0.4267625,0.031059703,0.018871542,-0.101408966,0
517,5.6449995,0.10972064,-0.15616916,-10.684548,-0.18876827,-0.36544725,0.026586717,-14.537633,18.78851,43.780098,0,-0.02470412,-0.08540314,-0.4277038,0.036622167,0.02432924,-0.108210534,0
518,5.863,0.1071294,-0.15376088,-10.688358,-0.2017341,-0.38182193,0.020075059,-14.159055,18.658815,43.935394,1,-0.024347058,-0.085159056,-0.42871183,0.042678613,0.029879682,-0.115799285,0
519,5.871999,0.10712434,-0.15375616,-10.688364,-0.18014874,-0.41635698,0.030351726,-13.969319,18.530542,44.013123,1,-0.023936912,-0.08486599,-0.42978832,0.048422426,0.035222232,-0.12342072,0
520,5.8809996,-0.0078924475,-0.34305915,-11.344161,-0.15643458,-0.35041708,0.031946365,-13.716356,18.465166,44.166172,1,-0.02347751,-0.08452208,-0.43094426,0.053491715,0.041620232,-0.13476162,0
521,5.8900003,-0.00973383,-0.3460391,-11.354531,-0.13791353,-0.35912552,0.03877205,-13.528152,18.4004,44.1695,1,-0.022975402,-0.08411602,-0.43221843,0.058047794,0.048584525,-0.14838865,0
522,5.898,-0.009737425,-0.34604487,-11.35455,-0.10913591,-0.26936835,0.023445968,-13.528152,18.4004,44.1695,0,-0.028777797,-0.08740419,-0.43132013,0.035862494,0.044074014,-0.15881683,1
523,5.9049997,-0.11183932,-0.27889407,-11.286127,-0.0963514,-0.2626232,0.0067296606,-13.27455,18.398367,44.39679,1,-0.028554246,-0.087126404,-0.43230006,0.038787186,0.048592594,-0.16770874,0
524,5.912999,-0.12657037,-0.26914847,-11.276196,-0.091038205,-0.22912389,0.014997584,-13.398191,18.335749,44.469025,1,-0.028183427,-0.086657666,-0.43386754,0.043608278,0.055548362,-0.18061772,0
525,5.919999,-0.12659875,-0.2691297,-11.276176,-0.07980139,-0.16895728,-0.0004978999,-13.208902,18.2709,44.546677,1,-0.02791241,-0.086310655,-0.4349771,0.04672883,0.06011246,-0.18923023,0
526,5.9280005,-0.16304244,-0.3413128,-11.423206,-0.0915146,-0.17364007,0.001664084,-13.208902,18.2709,44.546677,0,-0.0274717,-0.0857383,-0.4367401,0.051108327,0.067208454,-0.20283578,0
527,5.9350004,-0.1655139,-0.34597096,-11.432775,-0.0862406,-0.145555,0.008995841,-13.144339,18.14352,44.622242,1,-0.027156912,-0.08532029,-0.43798578,0.053821918,0.07212761,-0.2123955,0
528,5.943,-0.16555306,-0.34604475,-11.432925,-0.070692696,-0.15663904,-0.0026861036,-13.14587,18.20703,44.547844,1,-0.026654666,-0.0846382,-0.43996194,0.057770584,0.079436146,-0.22675107,0
529,5.95,-0.12599055,-0.30818805,-11.560897,-0.067429215,-0.18982589,0.0035394514,-12.95569,18.015331,44.625656,1,-0.026300259,-0.08414736,-0.44135177,0.06039061,0.08411137,-0.23671547,0
530,5.957999,-0.08772018,-0.2692057,-11.687397,-0.040814515,-0.21585606,0.00496889,-12.95569,18.015331,44.625656,0,-0.025738232,-0.0833619,-0.44355693,0.06448812,0.09040109,-0.25334924,0
531,5.964999,-0.08764645,-0.2691306,-11.687641,-0.028646564,-0.2834611,0.009190158,-12.766203,18.077251,44.77746,1,-0.025343303,-0.08280719,-0.4451104,0.06714758,0.094491124,-0.2644831,0
532,5.9730005,-0.1065136,-0.3754891,-11.756833,-0.04766139,-0.30281547,0.0031191818,-12.580615,18.076082,44.632057,1,-0.026320558,-0.08065783,-0.44211018,0.07141325,0.11911353,-0.2575345,1
533,5.9800005,-0.12628537,-0.4790039,-11.823737,-0.049067874,-0.33240488,0.0035629778,-12.455887,18.138617,44.634136,1,-0.025887214,-0.0799289,-0.44369116,0.072967134,0.1238827,-0.26948097,0
534,5.988,-0.1265986,-0.4806438,-11.824797,-0.060039632,-0.34911102,0.014810947,-12.139254,18.07271,44.86259,1,-0.025220662,-0.07878241,-0.44619742,0.07508021,0.13087206,-0.28746152,0
535,5.995,-0.1265992,-0.48064697,-11.824799,-0.10045041,-0.30041817,-0.0057566566,-12.139254,18.07271,44.86259,0,-0.024766266,-0.07798359,-0.4479582,0.076373,0.13539048,-0.29946017,0
536,6.0029993,-0.20419799,-0.32742164,-12.098044,-0.109983645,-0.2665818,-0.0098507125,-12.137722,18.009201,44.936993,1,-0.024064474,-0.07673513,-0.45074356,0.079619154,0.14202131,-0.31964394,0
537,6.0099993,-0.20450222,-0.3268255,-12.099095,-0.12539454,-0.23740165,0.0005746929,-11.821729,17.87995,45.091206,1,-0.023580208,-0.075870015,-0.45270228,0.08175868,0.14634505,-0.33326054,0
538,6.0180006,-0.20450705,-0.32681605,-12.099112,-0.13943361,-0.18429668,-0.023575108,-11.758056,17.879421,45.16661,1,-0.022830563,-0.074524134,-0.4557936,0.084783874,0.1527163,-0.3536981,0
539,6.0250006,-0.26107395,-0.41999343,-11.928319,-0.12127458,-0.21780962,-0.013375314,-11.758056,17.879421,45.16661,0,-0.022317044,-0.07359392,-0.4579541,0.08635757,0.1573788,-0.36641973,0
540,6.033,-0.26293433,-0.4229546,-11.922779,-0.10937545,-0.22305351,-0.0101392465,-11.756081,17.752483,45.241096,1,-0.021530235,-0.07214582,-0.46133682,0.08846345,0.16439578,-0.38528907,0
541,6.04,-0.2629379,-0.4229603,-11.92277,-0.10251468,-0.24879986,-0.019058187,-11.568321,17.751146,45.244343,1,-0.02099565,-0.07114549,-0.46368632,0.08974975,0.16900605,-0.39787382,0
542,6.047,-0.17498729,-0.3655742,-11.893684,-0.076273404,-0.29316884,-0.018044623,-11.254747,17.81226,45.323986,1,-0.018727934,-0.061604004,-0.46831954,0.11120031,0.23282649,-0.4161528,1
543,6.0549994,-0.14613263,-0.34608302,-11.883601,-0.052598007,-0.32993725,-0.02818749,-11.065013,17.683987,45.401714,1,-0.017717887,-0.059482146,-0.47214833,0.11307679,0.23869732,-0.43469465,0
544,6.062999,-0.14607628,-0.34604496,-11.883581,-0.021617576,-0.40895432,-0.015391818,-11.065013,17.683987,45.401714,0,-0.016691979,-0.057308648,-0.47614405,0.114750706,0.24429026,-0.4532501,0
545,6.071,-0.18442143,-0.40433243,-11.854803,-0.008704276,-0.3990239,-0.028710222,-10.753362,17.555073,45.258648,1,-0.016000137,-0.055832025,-0.47890058,0.11564529,0.24802607,-0.46554354,0
546,6.078,-0.22390677,-0.46130663,-11.824859,0.006859968,-0.41346547,-0.039691385,-10.501094,17.743317,45.485687,1,-0.014955336,-0.05357215,-0.4831718,0.11639739,0.25414446,-0.4836082,0
547,6.0859995,-0.22398283,-0.4614164,-11.8248005,0.03496302,-0.45490548,-0.006911546,-10.377647,17.679167,45.33929,1,-0.014255729,-0.052035544,-0.48610958,0.11679519,0.2580382,-0.49565437,0
548,6.0929995,-0.24285233,-0.4716335,-11.776428,0.029040515,-0.42617306,-0.026743684,-10.377647,17.679167,45.33929,0,-0.013202376,-0.049687948,-0.4906516,0.11721734,0.26363027,-0.5135954,0
549,6.100999,-0.2626241,-0.48050618,-11.727606,0.023394236,-0.446435,-0.027939461,-10.063186,17.613428,45.419098,1,-0.012498495,-0.04809485,-0.4937677,0.11738774,0.26735586,-0.52509403,0
550,6.107999,-0.26293734,-0.48064673,-11.726833,0.042546008,-0.42634133,-0.0044007725,-9.876316,17.738943,45.422176,1,-0.011441489,-0.04566447,-0.4985711,0.11750243,0.27264595,-0.54232687,0
551,6.116,-0.26293796,-0.480647,-11.726831,0.03142674,-0.36451054,-0.03238089,-9.68594,17.674011,45.574142,1,-0.01073645,-0.044018567,-0.5018596,0.117501386,0.2759685,-0.5538249,0
552,6.123,-0.2823341,-0.42319041,-11.590216,0.05360428,-0.3711831,-0.021785745,-9.68594,17.674011,45.574142,0,-0.008594762,-0.049392518,-0.50797135,0.13369215,0.24761766,-0.56744623,1
553,6.1309996,-0.28241363,-0.422964,-11.589684,0.066107444,-0.35592195,-0.008612805,-9.435397,17.798996,45.652622,1,-0.0077910195,-0.04789873,-0.5114082,0.13395669,0.2503389,-0.5781389,0
554,6.1379995,-0.2824149,-0.4229604,-11.589676,0.05645089,-0.34642377,-0.024041293,-9.246108,17.73415,45.73027,1,-0.006583289,-0.04562841,-0.51668376,0.13426381,0.2541478,-0.59418803,0
555,6.145999,-0.26350856,-0.5161378,-11.532769,0.05918085,-0.39809728,-0.019779723,-9.124636,17.796936,45.50939,1,-0.00577862,-0.04409597,-0.5202802,0.13392186,0.25665653,-0.60460263,0
556,6.152999,-0.26293907,-0.51909894,-11.530898,0.05301531,-0.38563454,-0.013312757,-8.934511,17.9222,45.735428,1,-0.0045762034,-0.041770026,-0.5257917,0.13316847,0.2601818,-0.6201611,0
557,6.1610003,-0.262938,-0.5191047,-11.530894,0.033421114,-0.3775692,-0.0296726,-8.934511,17.9222,45.735428,0,-0.003778589,-0.040202387,-0.5295439,0.13258329,0.26234898,-0.6305384,0
558,6.168,-0.2817682,-0.5377703,-11.170285,0.035713103,-0.41438392,-0.027396077,-8.497491,17.919163,45.668674,1,-0.002589657,-0.03782716,-0.5352834,0.13151655,0.26548982,-0.644196,0
559,6.1759996,-0.2824048,-0.53832483,-11.158797,0.03291909,-0.37595236,-0.022530925,-8.371037,18.044954,45.819313,1,-0.0018029194,-0.036228143,-0.53917307,0.13068092,0.2674828,-0.65235746,0
560,6.1829996,-0.28241488,-0.53833365,-11.158614,0.028111404,-0.37549654,-0.02842564,-8.122862,18.04334,45.674995,1,-0.000632879,-0.03380825,-0.54509944,0.12931436,0.27020365,-0.6645984,0
561,6.190999,-0.2652204,-0.57213444,-10.970178,0.038589172,-0.37687534,-0.018738337,-8.122862,18.04334,45.674995,0,0.00013991864,-0.032182045,-0.5491107,0.12821724,0.27185598,-0.6721988,0
562,6.197999,-0.2629424,-0.5767823,-10.943137,0.029127495,-0.3237218,-0.0171353,-7.932041,17.914984,45.82705,1,0.0011486333,-0.029442491,-0.555766,0.13460965,0.29032314,-0.66770893,1
563,6.2060003,-0.26293802,-0.5767912,-10.943084,0.013677732,-0.35686505,-0.012170034,-7.7468977,17.97724,45.68157,1,0.0019531313,-0.027696168,-0.5597928,0.13323924,0.29176292,-0.6745761,0
564,6.2130003,-0.29687047,-0.45916477,-10.703215,0.011701565,-0.31340873,-0.018597329,-7.494381,17.975288,45.834534,1,0.003144028,-0.025061492,-0.5659092,0.131427,0.29364008,-0.6841537,0
565,6.2209997,-0.3018134,-0.4424545,-10.66931,-0.021496244,-0.27360222,-0.027058844,-7.494381,17.975288,45.834534,0,0.0039304867,-0.023296539,-0.57002985,0.1307209,0.2946653,-0.68937916,0
566,6.2279997,-0.3018917,-0.44218978,-10.668773,-0.04505018,-0.30512452,-0.010531133,-7.3698487,17.911055,45.76246,1,0.0051023555,-0.02063824,-0.57626957,0.12954384,0.29603252,-0.697197,0
567,6.235999,-0.30189186,-0.44218928,-10.668771,-0.05896325,-0.26681995,-0.029474119,-7.2425046,17.909996,45.913265,1,0.0058774855,-0.0188596,-0.5804684,0.12866862,0.2968322,-0.70240927,0
568,6.305999,-0.32136884,-0.36527377,-10.335679,0.04930743,-0.2811337,-0.038314804,-5.9842076,17.583614,46.23259,1,0.012097597,0.0070185154,-0.6320008,0.10839217,0.33059183,-0.74221873,0
569,6.314,-0.3030331,-0.47351128,-9.931635,0.07586828,-0.30436766,-0.011824149,-5.8616514,17.646317,46.086025,1,0.012743025,0.009002078,-0.636459,0.106516875,0.33061203,-0.74355024,0
570,6.321,-0.3018941,-0.48063308,-9.90467,0.085116304,-0.28355867,-0.026633235,-5.8616514,17.646317,46.086025,0,0.013687708,0.01197771,-0.64315516,0.103402436,0.33060616,-0.74446636,0
571,6.3289995,-0.30189192,-0.4806468,-9.904617,0.09710612,-0.30919027,-0.0069372305,-5.6100245,17.771217,46.238827,1,0.014302117,0.0139608495,-0.6476238,0.10128322,0.3304627,-0.7450685,0
572,6.3359995,-0.20751229,-0.4620566,-9.866692,0.098892406,-0.30370283,-0.011386355,-5.359678,17.769434,46.24315,1,0.015199071,0.016931757,-0.6543329,0.09791529,0.3295709,-0.7457404,0
573,6.343999,-0.20455402,-0.4614281,-9.865449,0.08300317,-0.30009866,-0.032935847,-5.299512,17.95935,46.169662,1,0.015779724,0.018906016,-0.6588083,0.09556611,0.32860118,-0.7460714,0
574,6.350999,-0.20450714,-0.46141815,-9.865429,0.10264472,-0.3278602,-0.0075574517,-5.236925,17.958906,46.170746,1,0.008027949,0.015723856,-0.67088884,0.053431787,0.30251223,-0.7476673,1
575,6.359,-0.07273323,-0.3319237,-9.939213,0.09858933,-0.2968978,-0.03356238,-5.236925,17.958906,46.170746,0,0.008341105,0.017534142,-0.67537606,0.051024895,0.30062938,-0.74817604,0
576,6.3669996,-0.029299391,-0.28844336,-9.96335,0.09048631,-0.3189823,-0.031834975,-4.925524,18.020185,46.10174,1,0.008786095,0.020220712,-0.6821151,0.047742,0.29624334,-0.74938935,0
577,6.3760004,-0.029214561,-0.28835842,-9.963397,0.106717095,-0.31987655,-0.007870708,-4.6123962,18.144726,46.18131,1,0.009201379,0.022866338,-0.688865,0.04441329,0.29156843,-0.7505963,0
578,6.3849993,0.04412854,-0.34634537,-10.213524,0.09098646,-0.26891074,-0.045900673,-4.550451,18.080938,46.108147,1,0.0095860455,0.02546833,-0.69562685,0.0407665,0.28647038,-0.7525236,0
579,6.3949995,0.06812346,-0.3652368,-10.296329,0.09773438,-0.26239938,-0.02511234,-4.550451,18.080938,46.108147,0,0.009932818,0.028020628,-0.7024178,0.036281925,0.28066826,-0.7566046,0
580,6.402999,0.068170324,-0.36527368,-10.296491,0.11436569,-0.20634316,-0.018311862,-4.488754,18.207344,46.109062,1,0.010239607,0.030519392,-0.7092456,0.031761162,0.27461803,-0.7607049,0
581,6.4119997,0.029825144,-0.36587465,-10.130556,0.1142835,-0.161481,-0.03408127,-4.4861374,18.14375,46.257786,1,0.010505785,0.032962885,-0.71610963,0.02729918,0.2685125,-0.76430476,0
582,6.4210005,-0.009660163,-0.36527494,-9.963724,0.12718648,-0.13937803,-0.021355318,-4.2386575,18.395756,46.18746,1,0.010733642,0.035353865,-0.7229941,0.023172714,0.262928,-0.76551855,0
583,6.430999,-0.00973728,-0.36527377,-9.963399,0.12925829,-0.08511612,-0.03206962,-4.2371264,18.332245,46.261864,1,0.010923737,0.037694752,-0.729889,0.019076267,0.25724977,-0.7666552,0
584,6.437999,-0.009737432,-0.36527377,-9.963399,0.130423,-0.07218629,-0.027401945,-4.2371264,18.332245,46.261864,0,0.004075557,0.037717257,-0.7478251,-0.012329465,0.25026324,-0.7914868,1
585,6.446,-0.048063684,-0.44100624,-9.751254,0.13099812,-0.042624343,-0.02619577,-4.177157,18.395393,46.114216,1,0.003992421,0.039209098,-0.7525729,-0.0153362015,0.24681845,-0.7910788,0
586,6.453,-0.04869013,-0.44218695,-9.747874,0.11875227,-0.014956789,-0.039452046,-4.1795774,18.585754,46.03965,1,0.0038341335,0.041407745,-0.7596893,-0.019819247,0.24164993,-0.79033417,0
587,6.461999,-0.048691355,-0.44218928,-9.747867,0.12165304,-0.018363627,-0.021498261,-4.177602,18.45882,46.114136,1,0.003635976,0.04355939,-0.766799,-0.024226336,0.23642021,-0.7895883,0
588,6.471999,0.10652044,-0.28896385,-9.904009,0.11949664,0.02109405,-0.032253187,-4.177602,18.45882,46.114136,0,0.003400343,0.045655847,-0.7739067,-0.02809479,0.22934486,-0.7899757,0
589,6.481,0.10712316,-0.28835946,-9.904615,0.1062402,0.05514782,-0.052361056,-4.304305,18.52322,46.03757,1,0.0031311826,0.047686946,-0.78101873,-0.03180307,0.22202893,-0.79048234,0
590,6.489999,0.10712434,-0.28835827,-9.904615,0.12441641,0.054127645,-0.031162132,-4.2456703,18.776646,45.889675,1,0.0028293675,0.049651887,-0.7881353,-0.035409715,0.21470211,-0.7909927,0
591,6.498,0.068798095,-0.3451623,-9.731049,0.11554234,0.08352023,-0.046934634,-4.371288,18.840963,45.88743,1,0.0024953145,0.0515519,-0.7952538,-0.039075825,0.20780161,-0.79055554,0
592,6.5080004,0.06817164,-0.34604317,-9.72828,0.10845744,0.09220468,-0.044217754,-4.371288,18.840963,45.88743,0,0.0021269524,0.053392418,-0.8023642,-0.042766795,0.20120402,-0.7895403,0
593,6.5169992,0.06817042,-0.34604487,-9.728273,0.13082416,0.10627229,-0.036847476,-4.4332337,18.90475,45.960587,1,0.0017275265,0.055172447,-0.8094656,-0.046311058,0.19460213,-0.7885306,0
594,6.5250006,-0.041311417,-0.2920388,-9.599766,0.11909116,0.120978795,-0.035622045,-4.5594926,18.905727,45.8841,1,-0.018176652,0.0400223,-0.8377226,-0.1387291,0.11587114,-0.8416428,1
595,6.5320005,-0.048576046,-0.2884158,-9.591253,0.1269146,0.10792926,-0.024206864,-4.5588517,18.969069,45.95834,1,-0.019015234,0.040705673,-0.84276813,-0.14063215,0.11176254,-0.84021276,0
596,6.54,-0.048691135,-0.28835836,-9.591118,0.1452853,0.1301066,-0.04007508,-4.625585,19.096617,45.734127,1,-0.020293713,0.04168431,-0.85032034,-0.1433856,0.105638355,-0.83806807,0
597,6.547,-0.15064108,-0.4905619,-9.60612,0.14463952,0.13260369,-0.023237174,-4.625585,19.096617,45.734127,0,-0.021159958,0.04230681,-0.85534453,-0.14554916,0.10214013,-0.8367333,0
598,6.5549994,-0.18496293,-0.55743164,-9.610703,0.15735428,0.16650282,-0.032580595,-4.8122587,19.09787,45.805206,1,-0.022488091,0.04320859,-0.8628671,-0.14959472,0.09826438,-0.83495885,0
599,6.5619993,-0.18502906,-0.55756044,-9.610711,0.15873751,0.20693758,-0.047326345,-4.87618,19.288595,45.803875,1,-0.023393234,0.043790456,-0.8678733,-0.15220186,0.09572207,-0.8337844,0
600,6.5699987,-0.27237213,-0.34153813,-9.596322,0.17897677,0.24821527,-0.02926846,-5.002884,19.352997,45.727306,1,-0.02477862,0.044634745,-0.87536937,-0.15527329,0.09191505,-0.8319868,0
601,6.5769987,-0.30143064,-0.27026078,-9.591198,0.17449073,0.28543848,-0.051754378,-5.002884,19.352997,45.727306,0,-0.0257121,0.045178395,-0.88035744,-0.15586264,0.089307025,-0.8307017,0
602,6.585,-0.301891,-0.2691316,-9.591118,0.17625307,0.3338955,-0.047865137,-5.254119,19.481632,45.722813,1,-0.027116952,0.04596432,-0.88782513,-0.15648206,0.08548146,-0.82877743,0
603,6.592,-0.30189186,-0.26912946,-9.591118,0.18806705,0.3418125,-0.043938324,-5.254119,19.481632,45.722813,0,-0.028056782,0.046469834,-0.892794,-0.15678093,0.08303242,-0.82749915,0
604,6.5999994,-0.418523,-0.49942753,-9.669342,0.17858435,0.36838028,-0.04499555,-5.821904,19.621607,45.46963,1,-0.028669318,0.04711875,-0.91638696,-0.13815117,0.09970714,-0.85279995,1
605,6.6069994,-0.41875005,-0.4998689,-9.669491,0.18217766,0.36474052,-0.03131105,-6.011831,19.623112,45.318047,1,-0.029500723,0.047714125,-0.9215017,-0.13896994,0.09876195,-0.8521221,0
606,6.614999,-0.41875362,-0.49987587,-9.669493,0.17279328,0.3759544,-0.050133586,-6.011831,19.623112,45.318047,0,-0.0307564,0.048597384,-0.9291663,-0.13996479,0.09749253,-0.8511108,0
607,6.621999,-0.53377044,-0.23489675,-9.495923,0.1691048,0.37172773,-0.017464502,-6.076644,19.940989,45.316547,1,-0.03159324,0.049180076,-0.93426806,-0.13885641,0.09668673,-0.84943056,0
608,6.63,-0.53561187,-0.23067991,-9.493155,0.16011278,0.36861277,-0.02925414,-6.3302402,19.943024,45.08971,1,-0.03283397,0.050045494,-0.9419011,-0.13681796,0.09564192,-0.8467936,0
609,6.637,-0.5356153,-0.23067178,-9.493149,0.15279883,0.36687282,-0.04617075,-6.6414504,20.008574,45.232563,1,-0.033650476,0.050617576,-0.9469766,-0.1353378,0.095062114,-0.84503263,0
610,6.8639994,-0.4397332,-0.47675994,-8.683091,0.15829948,0.34487277,-0.020854956,-6.6414504,20.008574,45.232563,0,-0.03486204,0.05147116,-0.9545568,-0.13447444,0.094851874,-0.83785063,0
611,6.8709993,-0.4382541,-0.48058626,-8.670415,0.14026706,0.333222,-0.056491587,-6.8287644,19.946423,45.2294,1,-0.03566839,0.052040562,-0.959564,-0.13441543,0.0950122,-0.8312113,0
612,6.8789988,-0.43823063,-0.4806469,-8.670214,0.14194393,0.32600173,-0.03967755,-7.020666,20.074986,45.003483,1,-0.0368767,0.05289705,-0.96699995,-0.13417313,0.0953935,-0.8212435,0
613,6.8859987,-0.28469735,-0.46397194,-9.287568,0.13681954,0.32146242,-0.057497043,-7.333405,20.204102,45.072075,1,-0.037680607,0.05346931,-0.9719102,-0.13402835,0.09518325,-0.81642085,0
614,6.894,-0.26298046,-0.46142313,-9.375415,0.12679483,0.3014697,-0.037520338,-7.333405,20.204102,45.072075,0,-0.044407476,0.041740507,-1.0047232,-0.14416394,0.05206341,-0.86615175,1
615,6.901,-0.26293862,-0.4614182,-9.375585,0.13741927,0.3023086,-0.030364553,-7.3975205,20.26812,44.996742,1,-0.045272212,0.042050354,-1.0099128,-0.1439999,0.05118434,-0.863702,0
616,6.9089994,0.00989169,-0.2596652,-9.632907,0.116078556,0.2854951,-0.062360015,-7.6511173,20.270155,44.76991,1,-0.04656641,0.04250407,-1.0176708,-0.1434344,0.048941772,-0.86072946,0
617,6.9159994,0.048087176,-0.23112468,-9.6689205,0.12711221,0.27780876,-0.012428658,-7.7119813,20.333918,44.91708,1,-0.047424864,0.042788472,-1.0228326,-0.14268483,0.045843206,-0.85986954,0
618,6.923999,0.048692267,-0.23067254,-9.669493,0.09980545,0.2645656,-0.03675292,-7.7760973,20.397934,44.84175,1,-0.048703384,0.04318049,-1.0305659,-0.14141017,0.041289292,-0.85860497,0
619,6.930999,0.048693433,-0.23067167,-9.669493,0.09697597,0.24887854,-0.04093919,-7.7760973,20.397934,44.84175,0,-0.049549073,0.043419354,-1.0357151,-0.14047667,0.03833759,-0.8577648,0
620,6.939,-0.10681554,-0.11552608,-8.711279,0.093110815,0.26148507,-0.023027059,-8.030585,20.526943,44.614742,1,-0.050801065,0.043750077,-1.0433934,-0.13772584,0.03521876,-0.8482865,0
621,6.946,-0.10711745,-0.11530196,-8.709432,0.057098616,0.23059256,-0.041446056,-8.278956,20.401669,44.684757,1,-0.051621392,0.043955415,-1.0484635,-0.13577425,0.033252757,-0.8416947,0
622,6.9539995,-0.16494447,-0.2697303,-9.03331,0.064005144,0.2427296,-0.04162515,-8.402853,20.529366,44.83077,1,-0.052830007,0.04424223,-1.0559958,-0.13304149,0.0307307,-0.83280927,0
623,6.9609995,-0.22306155,-0.42056617,-9.350952,0.03679286,0.23765643,-0.05828783,-8.402853,20.529366,44.83077,0,-0.0536253,0.04442478,-1.0609844,-0.1320659,0.030144434,-0.83008075,0
624,6.968999,-0.22398223,-0.42295572,-9.355984,0.030513572,0.22746718,-0.029843457,-8.402853,20.529366,44.83077,1,-0.0631705,0.028344365,-1.0923468,-0.15508063,-0.03141484,-0.8695334,1
625,6.975999,-0.22398402,-0.4229603,-9.355993,0.025540615,0.22735058,-0.035554837,-8.594309,20.59444,44.604927,1,-0.06409818,0.02815407,-1.0975564,-0.15410346,-0.032004725,-0.8669679,0
626,6.984,-0.28194892,-0.5374416,-8.733902,0.005714199,0.2133079,-0.051760823,-8.782068,20.595778,44.601685,1,-0.06548113,0.027866472,-1.1053243,-0.15328544,-0.031742856,-0.8586266,0
627,6.991,-0.28240764,-0.5383197,-8.729072,0.025602432,0.22694458,-0.02246405,-8.782068,20.595778,44.601685,0,-0.06639942,0.027677229,-1.1104573,-0.15280776,-0.031331,-0.8523621,0
