,Unnamed: 0,Unnamed: 0.1,time,imu_accel_x,imu_accel_y,imu_accel_z,imu_gyro_x,imu_gyro_y,imu_gyro_z,mag_field_x,mag_field_y,mag_field_z,mag_new_data,pos_n,pos_e,pos_d,v_n,v_e,v_d,gnss_new_data,imu_new_data
0,0,0,0.069999695,0.9056798,-0.4998759,-9.76746,0.002730256,0.0013383321,-0.0022307057,-14.391508,19.456753,43.216537,1,-0.2037778707087312,-0.2577885717087312,-0.5557478217087313,0.1315121723432879,0.1221114293432879,0.0437540503432879,1,0.0
1,1,1,0.07999992,0.9056798,-0.4998759,-9.76746,0.0060445503,0.0021338195,-0.0007767469,-14.391954,19.52042,43.216454,1,0.0237737387886246,-0.0303495972113753,-0.3292501372113754,-0.03135825447051,-0.04072749877051,-0.11925762377051,0,0.0
2,2,2,0.0899992,0.90568453,-0.49988055,-9.767466,0.0063877436,0.0028841954,0.009871537,-14.391954,19.52042,43.216454,0,0.046500289079617,-0.0077072609203829,-0.3073151609203829,0.0333184525502591,0.0239755675502591,-0.0546874114497408,0,1.0
3,3,3,0.09999943,0.9056798,-0.4998759,-9.767462,0.0051673674,0.0024803495,0.011437818,-14.391508,19.456753,43.216537,1,0.0560901720112755,0.0017986490112755,-0.2985178009887244,0.0819112468853052,0.0725937774853052,-0.0062025705146947,0,1.0
4,4,4,0.10999966,0.9056798,-0.4998759,-9.767462,0.0075249686,0.004345006,0.020385504,-14.3899765,19.393,43.29087,1,-0.0049374776202775,-0.0593611026202775,-0.3527803026202775,-0.0741254585510108,-0.0884868620510108,-0.1599615120510108,1,0.0
5,5,5,0.119999886,0.9056893,-0.49988526,-9.767469,0.005664867,0.0020149483,0.020419544,-14.393039,19.520504,43.142212,1,-0.0886541672466198,-0.1432070852466198,-0.4372700852466198,-0.1684381475210531,-0.1828077089210531,-0.254397492921053,0,1.0
6,6,6,0.13000011,0.9056798,-0.4998759,-9.767462,0.004265141,0.0024437294,0.020325724,-14.393039,19.520504,43.142212,0,0.1193294081909049,0.0646471181909049,-0.230060691809095,-0.0471186517985025,-0.0614993357985025,-0.1332029657985025,0,1.0
7,7,7,0.13999939,0.9056798,-0.4998759,-9.767462,0.005247572,-0.0019881101,0.01089088,-14.328363,19.392637,43.217705,1,-0.0871218853012678,-0.1419768293012678,-0.4375459593012678,-0.0147611526947686,-0.0291564054947686,-0.1010122794947686,0,0.0
8,8,8,0.14999962,0.90571785,-0.5185414,-9.767499,0.0020923386,0.0023508184,0.002941642,-14.455289,19.457283,43.141216,1,0.0287795417951847,-0.0262046242048152,-0.3224211142048153,0.1249275041537961,0.1106574159537961,0.0386347479537961,0,1.0
9,9,9,0.15999985,0.9056799,-0.51910365,-9.767462,0.0032071115,0.0026766807,-0.004507036,-14.267643,19.519611,43.14438,1,0.0402516092004317,-0.0148599867995682,-0.3117255867995683,0.1350821807105922,0.1210396993105922,0.0488098303105922,0,1.0
10,10,10,0.17000008,0.9056798,-0.5191048,-9.767462,0.0037506092,0.0026890086,-0.017757129,-14.328173,19.51989,43.291786,1,0.0804768088589779,0.0251985458589779,-0.2725354541410221,0.057564873421353,0.043834592121353,-0.0286780648786469,0,1.0
11,11,11,0.17999935,0.90583193,-0.5024297,-9.750469,0.0058190897,0.0006489782,-0.023476806,-14.328173,19.51989,43.291786,0,-0.0056718993404947,-0.0610727533404947,-0.3594602233404947,0.0671029756880243,0.0535470442880243,-0.0191024557119756,0,1.0
12,12,12,0.18999958,0.9056801,-0.49988085,-9.747872,0.0070548006,-0.005701543,-0.030918753,-14.330341,19.520058,43.143295,1,-0.0924619949102152,-0.1479847849102152,-0.4470258309102152,0.0904677117371574,0.0769275657371574,0.0043346457371574,0,1.0
13,13,13,0.19999981,0.9056798,-0.4998759,-9.747867,0.010323524,0.0008511726,-0.031624675,-14.329895,19.45639,43.14338,1,-0.2115622311212301,-0.2646036721212301,-0.5571211121212302,-0.1749665303050427,-0.1808346073050427,-0.2471931583050427,1,1.0
14,14,14,0.21000004,0.89137644,-0.514598,-9.748173,0.01267164,-0.001532735,-0.029646862,-14.330341,19.520058,43.143295,1,-0.2383200418317897,-0.2914139018317897,-0.5845284768317898,-0.0605746484128658,-0.0663045404128658,-0.1326761004128658,0,1.0
15,15,15,0.21999931,0.88621294,-0.51909596,-9.747867,0.011897266,0.0025570388,-0.022784352,-14.330341,19.520058,43.143295,0,0.1415573762890515,0.0884135552890515,-0.2052991847109484,-0.0513753257122189,-0.0567463067122189,-0.1232989477122189,0,1.0
16,16,16,0.22999954,0.8862029,-0.5191048,-9.747867,0.009939794,0.0005522936,-0.015787283,-14.329895,19.45639,43.14338,1,-0.1007064910997319,-0.153911900099732,-0.448424770099732,0.0797907531713304,0.0748978384713304,0.0080992574713304,0,1.0
17,17,17,0.23999977,0.8862029,-0.5191048,-9.747867,0.00821552,-0.005885618,-0.007802753,-14.391954,19.52042,43.216454,1,0.2800782418970217,0.2268304008970217,-0.0682844941029782,-0.0474130764573243,-0.0519507461573243,-0.1189334331573243,0,0.0
18,18,18,0.25,0.92508304,-0.5191071,-9.747869,0.006729366,-0.0013401367,0.0025302214,-14.392592,19.456837,43.142296,1,0.2400500748253451,0.1867624068253451,-0.1089549681746548,0.0366441980916179,0.0323277210916179,-0.034574021908382,0,1.0
19,19,19,0.25999928,0.9251568,-0.5191048,-9.747867,0.0006777042,-0.0016283072,0.01064525,-14.392592,19.456837,43.142296,0,-0.2938725467437814,-0.3472103227437814,-0.6437297327437814,0.0615273115591915,0.0574956175591915,-0.0092781104408084,0,1.0
20,20,20,0.2699995,0.9251568,-0.5191048,-9.747867,-0.0027804137,-0.0023735214,0.017837051,-14.393039,19.520504,43.142212,1,0.4414139845236778,0.3880408975236778,0.0909209715236778,0.0332421454610098,0.0294292149610098,-0.0372488875389901,0,0.0
21,21,21,0.27999973,0.96381587,-0.51911414,-9.767318,0.007075622,-0.005726604,0.017491579,-14.330341,19.520058,43.143295,1,-0.3201191823426143,-0.3735260333426143,-0.6712453833426143,0.0046340659748673,0.0009289759748673,-0.0655811520251326,0,1.0
22,22,22,0.28999996,0.9641107,-0.5191048,-9.76746,0.005021536,0.009625033,0.008159204,-14.518435,19.521399,43.14005,1,-0.0810748343917508,-0.1345255113917508,-0.4330414573917508,0.0966325066876242,0.0930325366876242,0.0267740856876242,0,1.0
23,23,23,0.29999924,0.9641107,-0.5191048,-9.76746,-0.00391608,0.0010323243,0.000118365366,-14.393039,19.520504,43.142212,1,-0.145724841443562,-0.199207531443562,-0.498319031443562,0.0672670063684612,0.0637516003684612,-0.0023242576315387,1,0.0
24,24,24,0.30999947,0.88743913,-0.50019515,-9.748193,0.014598593,-0.0052128523,-0.010571213,-14.393039,19.520504,43.142212,0,-0.2748431482350594,-0.3222549582350594,-0.6175854982350594,-0.0853612563400484,-0.0641597958400484,-0.1375393923400484,0,1.0
25,25,25,0.3199997,0.88620317,-0.49987596,-9.747867,0.0055731963,0.0062889867,-0.023362488,-14.393039,19.520504,43.142212,1,0.2654748377916398,0.2183197427916398,-0.0778924672083601,0.0220619628877955,0.0436488558877955,-0.0299132251122044,0,1.0
26,26,26,0.32999992,0.8862029,-0.4998759,-9.747867,0.012651433,-0.003972469,-0.023815028,-14.391316,19.584005,43.29062,1,-0.3111421739212152,-0.3581016559212152,-0.6549766159212153,-0.1146017083285738,-0.0927231180285738,-0.1664255563285738,0,1.0
27,27,27,0.3399992,0.8315,-0.499951,-9.729575,0.026901562,-0.0036374347,-0.029369319,-14.393039,19.520504,43.142212,1,0.0434349221417532,-0.0033260838582467,-0.3008653078582468,-0.19355329847216,-0.17128503187216,-0.24523576147216,0,1.0
28,28,28,0.34999943,0.8277729,-0.4998759,-9.728273,0.012282978,-0.0011360507,-0.022915002,-14.393039,19.520504,43.142212,0,-0.0262481847611729,-0.072738107761173,-0.3711676177611729,-0.035169451268266,-0.012261062268266,-0.086686798268266,0,1.0
29,29,29,0.35999966,0.82777196,-0.4998759,-9.728273,0.022822766,-0.0051686987,-0.016437126,-14.329895,19.45639,43.14338,1,0.1431284408803097,0.0968468058803097,-0.2022541241196902,-0.0337933550941852,-0.0104169004941852,-0.0851936250941852,0,1.0
30,30,30,0.3699999,0.8960935,-0.51685137,-9.779861,0.009765005,-0.0049320525,-0.009204312,-14.329257,19.519974,43.217537,1,-0.0072210706558006,-0.0532903146558007,-0.3530658046558007,0.052331540736617,0.076145559036617,0.000996614736617,0,1.0
31,31,31,0.3800001,0.9056775,-0.51910424,-9.787053,0.0032308868,0.0057083373,0.003968395,-14.392592,19.456837,43.142296,1,0.0710999733066512,0.0253196243066512,-0.2753611556933487,-0.0660471863208671,-0.0417136885208671,-0.1174422643208671,0,1.0
32,32,32,0.3899994,0.9056798,-0.5191048,-9.787055,0.0111092,0.007901172,0.010321468,-14.329448,19.392721,43.143463,1,-0.0869111412181491,-0.1324707382181491,-0.4338350782181491,-0.0097200660914682,0.0150018619085317,-0.0611638140914682,0,1.0
33,33,33,0.39999962,0.93550396,-0.51970565,-9.768075,0.0010523234,0.010305646,0.018106356,-14.329448,19.392721,43.143463,0,-0.1001476118512764,-0.1454830268512764,-0.4475346168512764,0.0819227340386353,0.1070015225386353,0.0305234780386353,1,1.0
34,34,34,0.40999985,0.96410376,-0.51910496,-9.747872,0.0042308657,0.008918363,0.023290649,-14.455289,19.457283,43.141216,1,0.003166477805216,-0.0496062001947839,-0.3459522801947839,-0.0509450236975574,-0.0673602016975574,-0.1395967336975574,0,1.0
35,35,35,0.42000008,0.9641107,-0.5191048,-9.747867,0.017794559,0.008924402,0.021845235,-14.51952,19.521482,43.0658,1,-0.1296521502018684,-0.1825728692018683,-0.4795673992018684,0.0564765295991094,0.0399944051991094,-0.0318714958008905,0,1.0
36,36,36,0.42999935,0.9641107,-0.5191048,-9.747867,0.012951236,0.0019268672,0.023715118,-14.454205,19.4572,43.215454,1,0.0958370936208171,0.0427676956208171,-0.2548719843791828,-0.1573751506823334,-0.1739347626823334,-0.2454301736823334,0,0.0
37,37,37,0.43999958,0.8862415,-0.5191054,-9.787038,0.013687518,0.0028488757,0.017315984,-14.454205,19.4572,43.215454,0,-0.121120174177841,-0.174387126177841,-0.472888271177841,-0.0799121857346436,-0.0962659467346436,-0.1684010627346436,0,1.0
38,38,38,0.4499998,0.88620293,-0.5191048,-9.787055,0.015053138,0.0012281162,0.009237217,-14.330788,19.583727,43.14321,1,0.0490868928925742,-0.0043265301074257,-0.3034793501074257,0.2041028510529047,0.1879094014529047,0.1152326124529047,0,1.0
39,39,39,0.46000004,0.8862029,-0.5191048,-9.787055,0.013775973,-0.009338477,0.0027440712,-14.393039,19.520504,43.142212,1,-0.1584279642990242,-0.2119864432990242,-0.5117957972990242,-0.0293965262162323,-0.0454402202162323,-0.1186548902162323,0,1.0
40,40,40,0.4699993,0.88620406,-0.5191059,-9.747906,0.020486386,0.00024166802,-0.008889583,-14.329703,19.583643,43.217453,1,0.0141989160840521,-0.0395509179159478,-0.3402408479159479,0.0666016829543573,0.0507548492543573,-0.0227428857456426,0,1.0
41,41,41,0.47999954,0.8862029,-0.5191048,-9.747867,0.008615003,0.00184074,-0.014425239,-14.329703,19.583643,43.217453,0,-0.4027775139892858,-0.4566693429892858,-0.7580214389892859,-0.0659992807396328,-0.0817088410396328,-0.1553605220396328,0,1.0
42,42,42,0.48999977,0.8862029,-0.5191048,-9.747867,0.012580589,-0.0068737487,-0.015249444,-14.391508,19.456753,43.216537,1,0.1813708751515801,0.1273382801515801,-0.1746773898484198,-0.0123962613118555,-0.0279725883118555,-0.1017778273118555,0,0.0
43,43,43,0.5,0.92500937,-0.5191095,-9.767389,-0.00033114842,-0.005276028,-0.010248344,-14.330341,19.520058,43.143295,1,0.217483369418279,0.166802087418279,-0.1297988925817209,0.0475159839003838,0.0443610834003838,-0.0267113645996161,1,1.0
44,44,44,0.5099993,0.9251565,-0.5191048,-9.76746,-0.013248319,-0.0028348435,-0.0024008844,-14.391508,19.456753,43.216537,1,-0.5542470122901917,-0.6049563622901917,-0.9021970082901916,-0.0176076222616104,-0.0206893042616104,-0.0917650042616105,0,1.0
45,45,45,0.5199995,0.9251568,-0.5191048,-9.76746,-0.0048805047,-0.0041987617,0.0034371426,-14.456182,19.58462,43.14105,1,-0.4055208344719816,-0.4562575174719816,-0.7541378074719816,0.1147776778891555,0.1117847898891555,0.0407022778891555,0,1.0
46,46,46,0.52999973,0.9251758,-0.51912355,-9.76748,-0.0060148765,0.0015913468,0.0075372052,-14.456182,19.58462,43.14105,0,-0.4771843850468651,-0.527956173046865,-0.8266894930468651,0.0744278869490189,0.0715743219490189,0.0004789449490189,0,1.0
47,47,47,0.53999996,0.9251568,-0.51910484,-9.767462,-0.0073112673,-0.0014582817,0.00858932,-14.391508,19.456753,43.216537,1,0.0698431513685998,0.0190462123685998,-0.2803269776314002,-0.3433836260812231,-0.3461169410812231,-0.4172267880812231,0,1.0
48,48,48,0.54999924,0.9251568,-0.5191048,-9.767462,0.015196752,-0.0035030257,0.008040857,-14.517988,19.45773,43.140133,1,0.195286781371629,0.144465821371629,-0.155547398628371,-0.1647029462248444,-0.1673056722248444,-0.2384329682248444,0,1.0
49,49,49,0.55999947,0.8685899,-0.51914227,-9.748519,0.004673064,0.0075639593,0.0061766785,-14.329895,19.45639,43.14338,1,-0.1949709784068287,-0.2458218104068287,-0.5466890304068288,-0.0494056130944851,-0.0517161690944851,-0.1229941290944851,0,1.0
50,50,50,0.5699997,0.86672956,-0.51910484,-9.747869,0.016244452,0.0055675944,0.0025660493,-14.329895,19.45639,43.14338,0,-0.2419919820900919,-0.292862067090092,-0.594371913090092,0.0850393902149742,0.0830691702149742,0.0115452602149742,0,1.0
51,51,51,0.5789995,0.8667259,-0.5191048,-9.747867,0.02056065,-0.0013948958,-0.0014796718,-14.391954,19.52042,43.216454,1,-0.1439820014891696,-0.1948683084891696,-0.4970230184891696,0.0385537837579949,0.0369155117579948,-0.0348545482420051,0,1.0
52,52,52,0.58899975,0.8667259,-0.5191048,-9.747867,0.022111027,-0.0018543972,-0.008227085,-14.391954,19.52042,43.216454,1,-0.1911618294348276,-0.2420614264348276,-0.5448631964348276,-0.067522395088921,-0.068843387088921,-0.140853681088921,0,0.0
53,53,53,0.599,0.88619834,-0.53832924,-9.747867,0.038075898,-0.0008520097,-0.013613314,-14.33098,19.456474,43.069134,1,-0.2524540346261291,-0.3090691026261291,-0.6059483526261291,-0.0764505304125214,-0.1106621654125214,-0.1785092174125214,1,1.0
54,54,54,0.60899925,0.8862029,-0.53833365,-9.747867,0.0152694555,-0.0025936456,-0.015314659,-14.33098,19.456474,43.069134,0,0.4293013201723821,0.3723793376723821,0.0748888076723821,0.0787640772695478,0.0447705392695478,-0.0232196957304521,0,1.0
55,55,55,0.6189995,0.8862029,-0.53833365,-9.747867,-0.0024091064,-0.009594711,-0.018737465,-14.330341,19.520058,43.143295,1,-0.0970674912814036,-0.1542944722814036,-0.4523975022814037,0.1600024672126571,0.1262164902126571,0.0580881502126571,0,0.0
56,56,56,0.70899963,0.8472489,-0.57679135,-9.728273,0.04851498,-0.003215301,-0.007360352,-14.393039,19.520504,43.142212,1,0.1702125521538137,0.1146260841538137,-0.1870893258461862,0.0714399502523349,0.0550821819523349,-0.029118923047665,1,1.0
57,57,57,0.71899986,0.88561326,-0.4632396,-9.766867,0.022919906,-0.011175894,-0.012402254,-14.393039,19.520504,43.142212,0,0.0932409156476115,0.0374629496476115,-0.2652662053523884,-0.0291153930179713,-0.0451836945179713,-0.1297862325179714,0,1.0
58,58,58,0.7290001,0.8862017,-0.4614217,-9.76746,0.014727312,-0.011943341,-0.020178083,-14.300626,19.511066,43.218044,1,-0.2481669671344733,-0.3040924621344734,-0.6075831721344733,-0.0955670785498362,-0.1122849725498362,-0.1969238930498362,0,1.0
59,59,59,0.73899937,0.8862029,-0.46141812,-9.76746,-0.0044633383,-0.016862066,-0.022598835,-14.300626,19.511066,43.218044,0,-0.5020938480061852,-0.5581727710061852,-0.8624254610061852,-0.0361329227815681,-0.0535098057815681,-0.1381747617815681,0,1.0
60,60,60,0.7489996,0.97757715,-0.51557446,-9.767538,-0.03832275,0.005533174,-0.017991502,-14.30171,19.51115,43.143803,1,0.0837937798258291,0.0275015513258291,-0.2777668286741709,0.006285005753584,-0.0117832082464159,-0.0962823492464159,0,1.0
61,61,61,0.7589998,0.9835759,-0.51909786,-9.767462,-0.03538938,0.013718066,-0.015046962,-14.425799,19.51196,43.21588,1,0.0599808871576332,0.0035249041576332,-0.3025022758423668,-0.083241719053145,-0.101554076553145,-0.1856859125531449,0,1.0
62,62,62,0.76900005,0.9835876,-0.5191048,-9.767462,-0.036981378,0.01515142,-0.005958038,-14.363404,19.38438,43.142887,1,-0.0788041377948393,-0.1354258167948393,-0.4422086007948393,0.0355010550949683,0.0169984140949683,-0.0667918389050317,0,1.0
63,63,63,0.7789993,0.9108534,-0.5338269,-9.767768,-0.019094396,0.0074875704,0.0062551103,-14.363851,19.447989,43.142803,1,0.0616908092326812,0.0048461607326812,-0.3029398292673187,-0.0713792364212921,-0.0899133159212921,-0.1734834239212921,0,1.0
64,64,64,0.78899956,0.886251,-0.53832483,-9.767462,0.004575772,-0.00049530907,0.011728194,-14.363851,19.447989,43.142803,0,-0.0034200642053427,-0.0604293962053427,-0.3689696262053427,-0.0065885463537545,-0.0246449893537545,-0.1086915723537545,0,1.0
65,65,65,0.7989998,0.886203,-0.53833365,-9.767462,0.029730491,-0.0035092274,0.018904366,-14.426437,19.448435,43.141724,1,0.0848776395930228,0.0277079775930228,-0.2815908524069771,0.0675708268403926,0.0499989118403926,-0.0345329351596073,1,1.0
66,66,66,0.809,0.86733454,-0.51970565,-9.738683,0.055401333,-0.006646356,0.024197955,-14.363851,19.447989,43.142803,1,-0.0828732914580714,-0.1367051164580714,-0.4361084764580714,-0.01617311917455,-0.02159287117455,-0.08450612317455,0,1.0
67,67,67,0.8189993,0.84728813,-0.49991462,-9.708739,0.059862565,-0.009169127,0.022812601,-14.364297,19.511597,43.14272,1,-0.0225489121251686,-0.0764287931251686,-0.3763979631251686,-0.0511376492948287,-0.0564080372948287,-0.1192233342948287,0,1.0
68,68,68,0.8289995,0.847249,-0.49987596,-9.708681,0.052259732,-0.0059929243,0.01831794,-14.364297,19.511597,43.14272,0,0.1324245647853185,0.0784976527853185,-0.2220362472146814,0.1523314052585425,0.1471409962585425,0.0844623582585425,0,1.0
69,69,69,0.83899975,0.8472489,-0.4998759,-9.708681,0.022245485,-0.002618909,0.009996895,-14.426884,19.512043,43.14164,1,0.004570926453982,-0.0494180315460179,-0.3507027575460179,0.1851477087474295,0.1799867097474295,0.1175230787474295,0,1.0
70,70,70,0.849,0.94425815,-0.49988055,-9.786755,-0.005423627,0.0032703762,0.00010313978,-14.364743,19.575205,43.142635,1,-0.2673154659677706,-0.3213523019677706,-0.6231986219677705,0.0141712504429038,0.0086710864429038,-0.0536658125570961,0,1.0
71,71,71,0.85899925,0.944633,-0.4998759,-9.787055,-0.029352011,0.0071342476,-0.009381654,-14.302349,19.447626,43.069637,1,-0.1551575959606528,-0.2092455799606528,-0.5116523399606528,0.1499568373309568,0.1440946073309568,0.0818741603309568,0,1.0
72,72,72,0.86399937,0.9446337,-0.4998759,-9.787055,-0.042853713,0.0067141238,-0.012478872,-14.302349,19.447626,43.069637,0,0.13408864970885,0.07996482370885,-0.2228150362911499,0.0105733403021395,0.0044912153021395,-0.0576615956978604,0,1.0
73,73,73,0.86399937,0.9446337,-0.4998759,-9.787055,-0.042853713,0.0067141238,-0.012478872,-14.3008175,19.383934,43.14397,1,-0.2178779375224413,-0.2720017635224413,-0.5747816235224413,-0.0710955198826671,-0.0771776448826671,-0.1393304558826671,0,0.0
74,74,74,0.86399937,0.9446337,-0.4998759,-9.787055,-0.042853713,0.0067141238,-0.012478872,-14.363851,19.447989,43.142803,1,-0.2532506640800586,-0.3073744900800585,-0.6101543500800586,0.0986310115304288,0.0925488865304288,0.0303960755304288,0,0.0
75,75,75,0.86399937,0.9446337,-0.4998759,-9.787055,-0.042853713,0.0067141238,-0.012478872,-14.362766,19.447905,43.217045,1,-0.1632437767548512,-0.2173676027548512,-0.5201474627548512,0.0591148896975751,0.0530327646975751,-0.0091200463024248,0,0.0
76,76,76,0.8649988,0.9446337,-0.4998759,-9.787055,-0.042853713,0.0067141238,-0.012478872,-14.300626,19.511066,43.218044,1,0.0102434907882619,-0.043880335211738,-0.3466601952117381,0.041391390188331,0.035309265188331,-0.0268435458116689,1,0.0
77,77,77,0.8739996,0.8280026,-0.5382609,-9.767501,0.04830664,0.003288243,-0.0075030015,-14.300626,19.511066,43.218044,0,0.0365415110616878,-0.0175997329383121,-0.3166456529383121,-0.0173449019569215,-0.0279597821569215,-0.0989362101569215,0,1.0
78,78,78,0.8830004,0.82777244,-0.5383335,-9.767462,0.05835998,-0.0013464608,-0.0013414114,-14.363404,19.38438,43.142887,1,-0.0715839795307407,-0.1258184265307407,-0.4255066465307408,-0.0181051704199542,-0.0282068174199542,-0.0999651614199542,0,1.0
79,79,79,0.89199924,0.87905115,-0.5216586,-9.750469,0.05103496,-0.0046823155,-0.0041685845,-14.361236,19.384212,43.291378,1,0.303143271914195,0.248819818914195,-0.0515173460858049,-0.1671057690252483,-0.1768763101252483,-0.2491957541252483,0,1.0
80,80,80,0.901,0.8861889,-0.5191097,-9.747872,0.025994325,-0.009171153,-0.00092735054,-14.48794,19.448795,43.21488,1,-0.0322053635737286,-0.0866168235737286,-0.3876051735737286,0.1069927387321695,0.0971983532521695,0.0248222562521695,0,1.0
81,81,81,0.91100025,0.8862029,-0.5191048,-9.747867,-0.014112242,-0.027614215,0.0033729342,-14.48794,19.448795,43.21488,0,0.1949521256135218,0.1404522936135218,-0.1611876263864781,0.0047616648920565,-0.0050823559819434,-0.0774961419819434,0,1.0
82,82,82,0.9199991,0.9887612,-0.50498354,-9.85104,-0.053261865,-0.047867835,0.011669699,-14.424269,19.448267,43.290215,1,0.0762240507142597,0.0216351537142597,-0.2806567462857403,0.0460374092408205,0.0359665051468205,-0.0365330318531794,0,1.0
83,83,83,0.9289999,1.0224756,-0.49988586,-9.884956,-0.08635582,-0.06658133,0.0066499105,-14.361236,19.384212,43.291378,1,-0.1658571904359466,-0.2205400954359466,-0.5234855754359466,-0.1677446227058818,-0.1785590389058818,-0.2513065549058819,0,1.0
84,84,84,0.9379988,1.0225415,-0.4998759,-9.885022,-0.10362518,-0.073695906,0.007872128,-14.2982025,19.32016,43.29254,1,0.0599405948453287,0.0051572658453287,-0.2984440341546712,0.0062221642918422,-0.0052673137681577,-0.0782536467681577,0,1.0
85,85,85,0.947999,1.0812768,-0.5434413,-9.782462,-0.108252235,-0.0720298,0.0044164653,-14.296671,19.256468,43.366867,1,-0.0589068130458806,-0.1138325020458806,-0.4183108820458806,0.0782494051867998,0.0661255868867998,-0.0067704756132001,0,1.0
86,86,86,0.9560003,1.10015,-0.5573419,-9.748407,-0.09558298,-0.06103672,0.0071559316,-14.296671,19.256468,43.366867,0,-0.0016624384263389,-0.0572419444263389,-0.3552530984263389,0.144778417157386,0.124209095157386,0.056575486157386,1,1.0
87,87,87,0.9649992,1.1004488,-0.55756205,-9.747869,-0.045270365,-0.031980943,0.006626875,-14.170861,19.319101,43.443195,1,0.0999394465571526,0.0441748445571526,-0.2544389714428473,0.0126893562198908,-0.0078614034801091,-0.0741498534801091,0,1.0
88,88,88,0.974,1.1004493,-0.5575625,-9.747867,0.030679973,-0.015620693,0.008598001,-14.295587,19.256384,43.441116,1,-0.288095403817432,-0.344044716817432,-0.643249086817432,0.0913662422926114,0.0708761672926114,0.0059386052926114,0,1.0
89,89,89,0.9840002,0.80858153,-0.44230312,-9.649995,0.09457341,-0.00721436,0.0022906414,-14.108466,19.191523,43.370193,1,0.2029369477113651,0.1467399487113651,-0.1532363512886348,-0.0369279435239102,-0.0577840433239102,-0.1215699613239102,0,1.0
90,90,90,0.9929991,0.80829555,-0.44218948,-9.6498995,0.08302179,-0.008286942,0.0040337252,-14.108466,19.191523,43.370193,0,0.1326442655856938,0.0762576945856938,-0.2242889594143061,-0.0398236054846814,-0.0611082638846814,-0.1240719138846814,0,1.0
91,91,91,1.0019999,0.808295,-0.44218928,-9.6498995,0.045640506,-0.038684353,-0.009663748,-14.235616,19.319714,43.293625,1,-0.1480217576378801,-0.2046021356378801,-0.5057116056378801,-0.1329732586704848,-0.1547686823704848,-0.2168744513704848,0,1.0
92,92,92,1.0109987,0.57548916,-0.34642515,-9.806042,0.01874609,-0.050016154,-0.015979355,-14.173031,19.31927,43.294704,1,0.1977596053402614,0.1409790723402614,-0.1606955326597385,-0.061194625203869,-0.083906685203869,-0.147534696203869,0,1.0
93,93,93,1.0199995,0.5745733,-0.34604564,-9.806648,-0.047967263,-0.031707484,-0.010506282,-14.173031,19.31927,43.294704,1,-0.1960441554392437,-0.2530334854392437,-0.5552886154392438,-0.1317167296927033,-0.1554053946927033,-0.2207737156927033,0,1.0
94,94,94,1.0299997,0.57457143,-0.3460449,-9.806648,-0.098783664,-0.017542342,-0.008341192,-14.173031,19.31927,43.294704,0,0.1339879766618576,0.0767812086618576,-0.2260700213381423,0.0954615468117317,0.0708443108117317,0.0037354318117317,0,1.0
95,95,95,1.0390005,0.8238348,-0.5164195,-9.806667,-0.093804896,-0.00054621324,-0.010854137,-14.234084,19.256021,43.36795,1,0.1241313599919581,0.0667014559919581,-0.2367599300080418,-0.0066113476667293,-0.0313019516667293,-0.0995777826667293,0,1.0
96,96,96,1.0460005,0.82771045,-0.5190628,-9.806648,-0.069520965,0.024993466,-0.008605246,-14.173031,19.31927,43.294704,1,0.2211597248637923,0.1684284318637923,-0.1290833521362077,-0.0672048997073191,-0.0719344443073191,-0.1375103333073191,1,1.0
97,97,97,1.0559988,0.82777196,-0.5191048,-9.806648,-0.015331135,0.059305467,-0.0016146865,-14.357281,19.129614,43.440205,1,-0.2033881705181653,-0.2561708405181653,-0.5544763245181653,0.0319151198563426,0.0280976253563426,-0.0386161351436573,0,1.0
98,98,98,1.0649996,1.0469638,-0.6633964,-9.769987,0.039096426,0.025289744,0.0034949654,-14.2325535,19.19233,43.442284,1,-0.2113636084223296,-0.2641760254223296,-0.5630844154223296,-0.0427582009386242,-0.0453332249386242,-0.1123342089386242,0,1.0
99,99,99,1.0749998,1.061467,-0.67291707,-9.767466,0.08113656,0.010571452,0.010937955,-14.2325535,19.19233,43.442284,0,0.0012485433247535,-0.0515791066752465,-0.3510887826752465,-0.2558956624745742,-0.2567104604745742,-0.3233306544745742,0,1.0
100,100,100,1.0840006,1.0614954,-0.6729357,-9.767462,0.08443977,-0.035011448,0.013870963,-14.171499,19.255575,43.36903,1,-0.0952312754863577,-0.1480586004863577,-0.4481660454863577,-0.0850421395670209,-0.0841703635670209,-0.1503843425670209,0,1.0
101,101,101,1.0929995,0.9082666,-0.33658066,-9.801903,0.048075832,-0.06882375,0.0005310287,-14.172585,19.25566,43.29479,1,-0.0957794818211543,-0.1485935078211543,-0.4492947578211543,-0.0510393347272207,-0.0497654407272207,-0.1154566507272207,0,1.0
102,102,102,1.1009989,0.88624597,-0.28845248,-9.806639,0.023823509,-0.04632147,-0.013534965,-14.173031,19.31927,43.294704,1,-0.0272186916200233,-0.0800325536200233,-0.3813217636200233,-0.0565160586874696,-0.0577774881874696,-0.1227283131874696,0,1.0
103,103,103,1.1109991,0.886203,-0.28835845,-9.806648,-0.009474569,-0.03562934,-0.016039524,-14.173031,19.31927,43.294704,0,0.1866751411790903,0.1338382741790902,-0.1680319858209097,-0.0593908918560219,-0.0632443938560219,-0.1274136578560219,0,1.0
104,104,104,1.1929998,0.730383,-0.4229663,-9.708683,0.048362516,-0.019757012,-0.007252075,-14.170861,19.319101,43.443195,0,0.1074150480027583,0.0511417690027583,-0.2483849769972416,0.1674887460483698,0.1508480753483698,0.0867734393483698,0,1.0
105,105,105,1.2019987,0.7303871,-0.4229604,-9.708681,0.004041214,0.008911667,-0.013174959,-14.047411,19.254768,43.29695,1,-0.218086348717083,-0.274511355717083,-0.574614941717083,-0.0975958126914489,-0.1146770486914489,-0.1787856896914489,0,1.0
106,106,106,1.2109995,1.0543438,-0.32215902,-9.8117,-0.03739378,0.02749827,-0.016648056,-14.1062975,19.191355,43.518684,1,-0.0560272916832354,-0.1126092056832354,-0.4132890216832355,-0.095635315390161,-0.113956990390161,-0.1775006263901611,0,1.0
107,107,107,1.2209997,1.1004382,-0.30759072,-9.82624,-0.04373321,0.02680961,-0.0019824575,-14.169522,19.128275,43.443447,1,-0.1521377345509716,-0.2089645005509716,-0.5103910005509716,0.0597538652936274,0.0372721162936274,-0.0236240817063725,0,1.0
108,108,108,1.2289991,1.1004493,-0.3075872,-9.8262415,-0.042831223,0.02096541,0.006578212,-14.169522,19.128275,43.443447,0,-0.0192395800191203,-0.0723493460191203,-0.3697169420191203,-0.0352679112360666,-0.0453219165360666,-0.1115938025360666,1,1.0
109,109,109,1.2379999,0.87905115,-0.6947185,-9.792107,-0.032340813,-0.01999619,0.010644563,-14.169969,19.191883,43.443363,1,0.1398433310930754,0.0866326080930754,-0.2113245019069245,0.0168684980761714,0.0057241490761714,-0.0596953084238285,0,1.0
110,110,110,1.2469988,0.8473111,-0.7497436,-9.787065,-0.005995067,-0.04386357,0.008727461,-14.171053,19.191967,43.369114,1,0.4228412170156848,0.3695452940156848,0.0709920640156848,-0.1143422467818043,-0.1221084262818043,-0.1891616232818043,0,1.0
111,111,111,1.256999,0.8472489,-0.7498512,-9.787055,0.017003933,-0.033922933,-0.00021116978,-14.2325535,19.19233,43.442284,1,-0.2605510286397016,-0.3139128026397016,-0.6132838026397016,-0.0161003386810341,-0.0193161649810341,-0.0885377286810341,0,1.0
112,112,112,1.2680006,0.8644435,-0.37984565,-9.770062,0.02551045,-0.027941046,5.48447e-05,-14.2325535,19.19233,43.442284,0,-0.1740821238976554,-0.2274598738976554,-0.5274600838976555,-0.0261456016826445,-0.0274992893826445,-0.0976334226826445,0,1.0
113,113,113,1.276,0.8667214,-0.3269196,-9.767466,0.048976637,0.00237622,0.0007439258,-14.171692,19.128443,43.294956,1,0.0950780363242785,0.0416799263242785,-0.2589481736757214,-0.1014929328054386,-0.1046908098054386,-0.1740686931054386,0,1.0
114,114,114,1.2849989,0.8667259,-0.32681623,-9.767462,0.04929845,0.009410521,-0.0024789155,-13.982208,19.190546,43.446606,1,0.0939182732470046,0.0404827742470046,-0.2607661657529954,-0.0896771127989944,-0.0947940400989944,-0.1633856430989944,0,1.0
115,115,115,1.2930002,0.8667259,-0.32681602,-9.767462,0.032545496,0.01458528,-0.007241095,-14.235169,19.256105,43.29371,1,0.3023267821776976,0.2488364741776976,-0.0530262608223023,-0.0451309232288351,-0.0522077207288351,-0.1200044897288351,0,1.0
116,116,116,1.3030005,0.76953363,-0.32681838,-9.689241,0.013977168,0.016254572,-0.010651211,-14.171499,19.255575,43.36903,1,0.1616287153757424,0.1080673393757424,-0.1944018206242575,-0.2516010809566831,-0.2603091944766831,-0.3272692344766831,0,1.0
117,117,117,1.3119993,0.76934147,-0.32681602,-9.689086,-0.019544303,-0.003188482,-0.0025451563,-14.171499,19.255575,43.36903,0,0.088206167108831,0.034559174108831,-0.2685089158911689,0.0011584945581296,-0.0091642026418703,-0.0752934846418703,0,1.0
118,118,118,1.3210001,0.7693411,-0.32681602,-9.689086,-0.05245372,-0.032112803,0.0035965533,-14.107828,19.255047,43.44436,1,0.2446199570601653,0.1913532830601653,-0.1051636069398346,0.0258461111928382,0.0111644241928382,-0.0472629168071617,1,1.0
119,119,119,1.329999,0.7499045,-0.71064466,-9.806421,-0.052949246,-0.035371676,0.005203346,-14.169522,19.128275,43.443447,1,0.1975591660861964,0.1441730510861964,-0.1528787449138035,0.1378821713074366,0.1261542325074366,0.0656413395074366,0,1.0
120,120,120,1.3380003,0.74986416,-0.71139205,-9.806648,-0.03539281,-0.027090194,-0.0022551168,-14.045879,19.191076,43.371277,1,-0.107259071614614,-0.160736238614614,-0.4583426826146139,-0.0534521162606233,-0.0619512198506233,-0.1246917348506233,0,1.0
121,121,121,1.3480005,0.74986416,-0.7113935,-9.806648,-0.0028944397,0.008660287,-0.0066422466,-14.045879,19.191076,43.371277,0,-0.0414302595925125,-0.0949692525925125,-0.3931503525925126,-0.0234513524727847,-0.0286854876727847,-0.0936521372727847,0,1.0
122,122,122,1.3569994,1.0183,-0.44641435,-9.71023,0.03379739,0.03101166,-0.008285208,-14.105851,19.127747,43.51877,1,0.0659480187632386,0.0123690577632386,-0.2863993322367613,-0.1347109817300703,-0.1392903832300703,-0.2039223337300703,0,1.0
123,123,123,1.3660002,1.0225333,-0.4421975,-9.708683,0.04966279,0.041379903,-0.0019935223,-14.169522,19.128275,43.443447,1,-0.2010229424618939,-0.254647439461894,-0.553988989461894,-0.0728101235160947,-0.0783575529160947,-0.1410931379160947,0,1.0
124,124,124,1.374999,1.0225415,-0.44218928,-9.708681,0.04536899,0.03834749,0.00011877753,-14.10802,19.127914,43.370277,1,0.1902253838476992,0.1365464823476992,-0.1633512276523007,0.0725944994033342,0.0660441506033342,0.0051950196033342,0,1.0
125,125,125,1.3849993,0.7487229,-0.352129,-9.727126,0.02572539,-0.0007924369,-0.00192054,-14.234277,19.12889,43.293877,1,0.0104193946606386,-0.0433232433393613,-0.3437623833393614,0.0101693334912321,0.0025215214912321,-0.0573176525087678,0,1.0
126,126,126,1.394,0.730423,-0.3460568,-9.7282715,0.0037247378,-0.031437866,-0.001230371,-14.234277,19.12889,43.293877,0,-0.1448282512440609,-0.1986450132440609,-0.4996223732440609,0.0695761082121455,0.0607360420121454,0.0009809180121454,0,1.0
127,127,127,1.4029989,0.7303872,-0.3460449,-9.728273,-0.018405436,-0.037820175,-0.0062183198,-14.170415,19.255491,43.44328,1,0.0047077218428217,-0.0491939836571782,-0.3507086936571782,0.053191121187809,0.043150829984809,-0.0165063670151909,1,1.0
128,128,128,1.4110003,0.84983575,-0.51444775,-9.728428,-0.020149337,-0.048635263,-0.011566252,-14.108466,19.191523,43.370193,1,-0.0859103904328694,-0.1396469914328694,-0.4354717814328694,0.0010465480527687,-0.0135245984472312,-0.0696744754472312,0,1.0
129,129,129,1.4210005,0.8666929,-0.53828704,-9.728273,-0.01973708,-0.022784395,0.0011162997,-14.107828,19.255047,43.44436,1,0.2954421815431872,0.2415773685431872,-0.0547518114568127,-0.0241749881365293,-0.0380895083365293,-0.0940042943365293,0,1.0
130,130,130,1.4299994,0.8667258,-0.5383336,-9.728273,-0.012124154,-0.0038064031,-0.0019789813,-14.107828,19.255047,43.44436,0,0.1037192699916281,0.0497323069916281,-0.2470990530083718,0.0286903502281728,0.0154628102281728,-0.0402089537718271,0,1.0
131,131,131,1.4390001,0.89655,-0.52932006,-9.758276,-0.0030577246,0.0139848,-0.003730707,-14.107382,19.191439,43.444443,1,0.1067706534390621,0.052667716439062,-0.2446636535609379,-0.1012089696091982,-0.1138046051091982,-0.1692469371091982,0,1.0
132,132,132,1.447999,0.92510086,-0.5191247,-9.786999,0.017269293,0.04648027,-0.00049817556,-14.043711,19.190908,43.519768,1,0.3510404883666319,0.2968254453666319,-0.001004050633368,0.0150548596012896,0.0027317806012896,-0.0525297023987103,0,1.0
133,133,133,1.4579992,0.9251568,-0.5191048,-9.787055,0.015113105,0.019623619,-0.005742786,-14.10802,19.127914,43.370277,1,-0.2311694160270715,-0.2855301970270715,-0.5840216170270716,0.0982991417424948,0.0863299491424948,0.0312686391424948,0,1.0
134,134,134,1.4679995,0.7793839,-0.44729692,-9.772666,0.01711018,-0.0011413164,-0.0007816567,-14.10802,19.127914,43.370277,0,-0.1486593764724538,-0.2031268634724538,-0.5021135334724538,0.072364304960013,0.060539908660013,0.005426300660013,0,1.0
135,135,135,1.4770002,0.7304829,-0.4230079,-9.767471,0.013032928,-0.0063876985,0.004084209,-14.1062975,19.191355,43.518684,1,-0.0836110196996536,-0.1381858646996536,-0.4376712246996536,0.0135184167351096,0.0014759987351096,-0.0542359062648903,0,1.0
136,136,136,1.4859991,0.73038733,-0.4229605,-9.767462,0.0037129854,-0.035320457,0.0018765279,-14.107382,19.191439,43.444443,1,-0.2510707691605557,-0.3057550121605557,-0.6057444971605557,0.1375259641589922,0.1252492888589922,0.0689395758589922,0,1.0
137,137,137,1.4949999,0.7303872,-0.42296037,-9.767462,-0.004400448,-0.028311724,-0.0005575046,-14.10802,19.127914,43.370277,1,-0.0663662926092305,-0.1211620736092305,-0.4216610176092306,-0.1032989393072819,-0.1158171987072819,-0.1727037207072819,1,1.0
138,138,138,1.5029993,0.7692673,-0.40377143,-9.669685,-0.0026831517,-0.0049165525,-0.0068375864,-14.109998,19.255215,43.29587,1,-0.1060607266807103,-0.1594955206807103,-0.4558186156807103,-0.0309844132593221,-0.0418368255593221,-0.1029301655593221,0,1.0
139,139,139,1.5129995,0.7693409,-0.40373158,-9.669493,-0.00078067876,0.0026026089,-0.0038562603,-14.109998,19.255215,43.29587,0,0.0603968058162964,0.0068617988162964,-0.2900079911837036,-0.0042554546867128,-0.0156733395867128,-0.0760647605867128,0,1.0
140,140,140,1.5229998,0.769341,-0.4037315,-9.669493,0.02074971,0.025470924,-0.00017056368,-14.1069355,19.12783,43.444527,1,-0.1795748696924635,-0.2332151286924635,-0.5306253786924635,-0.0498419656214314,-0.0618176531414314,-0.1215119141414313,0,1.0
141,141,141,1.5309992,0.9819233,-0.57544875,-9.883348,0.034522176,0.023368161,-0.0013391188,-14.2325535,19.19233,43.442284,1,0.1721432506905775,0.1183968046905775,-0.1795518603094224,0.0616185525155356,0.0501276119155356,-0.0099565510844643,0,1.0
142,142,142,1.54,0.98358434,-0.5767888,-9.88502,0.03699309,0.0022861816,-0.0007243178,-14.171499,19.255575,43.36903,1,-0.0969175450819696,-0.1507641980819696,-0.4492565680819697,-0.2116235253686325,-0.2224094982686325,-0.2831387572686326,0,1.0
143,143,143,1.5500002,0.9835876,-0.57679135,-9.885022,0.02349835,-0.006207009,-0.006252295,-14.171499,19.255575,43.36903,0,0.2484441454230415,0.1945034744230415,-0.1045383355769584,0.0212376957389457,0.0111262367389457,-0.0502400602610542,0,1.0
144,144,144,1.5589991,0.8515476,-0.35329327,-9.676267,0.0044473056,-0.023732435,-0.006359501,-14.170415,19.255491,43.44328,1,0.1061200802885002,0.0520877212885002,-0.2475057487114997,0.0414034134197025,0.0306446151197025,-0.0301118488802974,0,1.0
145,145,145,1.5679998,0.8472573,-0.34605905,-9.669506,-0.020402264,-0.028971251,-0.0024245805,-14.107382,19.191439,43.444443,1,0.2992733997305598,0.2451369557305597,-0.0549964242694402,-0.1889297588346618,-0.2013081871346618,-0.2605211881346618,0,1.0
146,146,146,1.5769987,0.8472489,-0.3460449,-9.669493,-0.0280944,-0.009302344,-0.007531959,-14.107382,19.191439,43.444443,1,0.0864157834589768,0.0321607174589767,-0.2684985925410232,0.0834793325882921,0.0694965726882921,0.0118384416882921,0,1.0
147,147,147,1.5869989,0.8089227,-0.49749103,-9.804525,-0.020115778,0.0171062,-0.0056098704,-14.171053,19.191967,43.369114,1,-0.3199352744818081,-0.3725123174818081,-0.6682016174818081,-0.0594792716557977,-0.0700207946557977,-0.1273978566557977,1,1.0
148,148,148,1.5969992,0.80829626,-0.49987122,-9.806644,-0.012597628,0.030813549,-0.00478336,-14.171053,19.191967,43.369114,0,-0.2841407317542034,-0.3368105467542034,-0.6330197267542035,0.0440621225408702,0.0339953557408702,-0.0241727887591297,0,1.0
149,149,149,1.606,0.808295,-0.49987587,-9.806648,0.012156743,0.026789721,-0.0028645857,-14.232107,19.128721,43.442364,1,-0.4963570745726665,-0.5491152005726665,-0.8458515705726666,-0.1431637501443778,-0.1527253174443777,-0.2117140154443778,0,1.0
150,150,150,1.6149988,0.75732017,-0.51685137,-9.806802,0.030258808,0.00016916079,0.0076492354,-14.232107,19.128721,43.442364,0,-0.2821715903659289,-0.3350132793659289,-0.632284513365929,0.0586527322916778,0.0497280132916778,-0.0102453647083221,0,1.0
151,151,151,1.624999,0.7498787,-0.51910037,-9.806648,0.03814759,-0.015222221,0.008720808,-14.080775,19.25493,43.370598,1,-0.0509008698100542,-0.1038187163100542,-0.4016357463100542,-0.0063026046997915,-0.0143053679997916,-0.0756115809997916,0,1.0
152,152,152,1.6339998,0.74986416,-0.5191048,-9.806648,0.03451381,-0.041434303,0.0030950264,-14.080775,19.25493,43.370598,0,0.0680757758855539,0.0150899113855539,-0.283284808614446,0.0336271314875192,0.0265095961875192,-0.0361089318124807,0,1.0
153,153,153,1.6430006,0.8186422,-0.46201906,-9.777871,0.03637825,-0.043784447,-0.0068025696,-14.018938,19.19096,43.29752,1,0.0167042350279157,-0.0363423329720843,-0.3352858829720843,0.0012960477253335,-0.0052916702746664,-0.0688394982746664,0,1.0
154,154,154,1.6519995,0.8860709,-0.40384534,-9.747926,0.009614148,-0.0042919107,-0.012375051,-14.018938,19.19096,43.29752,1,-0.294028632472401,-0.347138999472401,-0.6466510994724011,0.1453706233453936,0.1377512502453936,0.0749921287453936,0,1.0
155,155,155,1.6619997,0.8862029,-0.40373152,-9.747867,-0.00031473403,0.015431219,-0.018717304,-14.142358,19.128159,43.369686,1,-0.2091644659409068,-0.2623749049409069,-0.5626334049409069,0.1102925257001045,0.1012317232001045,0.0395959872001045,0,1.0
156,156,156,1.6719999,0.9257654,-0.41394687,-9.8072605,-0.009219982,0.041524272,0.0003526773,-14.142358,19.128159,43.369686,0,-0.215486943090608,-0.268783763090608,-0.569593423090608,0.0141182332088228,0.0039810829688228,-0.0569369950311771,0,1.0
157,157,157,1.6799994,0.96403587,-0.4229428,-9.865316,-0.028206315,0.04220486,0.0014522903,-14.018299,19.254484,43.371677,1,0.1632770593030572,0.1088300683030571,-0.1840127716969428,-0.0969966248505635,-0.1189056318505635,-0.1649284068505635,1,1.0
158,158,158,1.6879988,0.9641096,-0.4229601,-9.865427,-0.028045855,0.020407973,-8.646146e-05,-14.079245,19.191238,43.44493,1,-0.0293580325202433,-0.0839387455202433,-0.3770573655202434,0.036641881869588,0.013975099869588,-0.0319120311304119,0,1.0
159,159,159,1.6969995,0.9641107,-0.42296037,-9.865429,-0.014499177,-0.0023258592,0.00128627,-14.142804,19.191767,43.369602,1,-0.2278386380627359,-0.2826283210627359,-0.576159151062736,-0.065032927438084,-0.088802228038084,-0.134506526038084,0,1.0
160,160,160,1.7069998,0.6527849,-0.5190121,-9.728409,-0.0049497457,-0.03218625,0.0001706333,-14.14172,19.191683,43.44385,1,0.0649582299250495,0.0098888069250495,-0.2841975530749504,-0.1767961902499132,-0.1993497802499132,-0.2464086532499132,0,1.0
161,161,161,1.717,0.6524799,-0.5191046,-9.728273,0.016803408,-0.045634102,0.0027634636,-14.14172,19.191683,43.44385,0,0.3057128442029093,0.2504460422029093,-0.0440692677970906,0.1003669470401434,0.0790572662401434,0.0308033482401434,0,1.0
162,162,162,1.7259989,0.6524794,-0.5191048,-9.728273,0.04787126,-0.026808387,0.01065221,-14.14172,19.191683,43.44385,1,0.1239004290431903,0.0684473730431903,-0.2265075069568096,-0.0512024658187357,-0.0712938100187357,-0.1207092790187358,0,1.0
163,163,163,1.8629999,0.8650616,-0.36648497,-9.767163,0.043533046,-0.014542128,-0.00014193633,-14.07816,19.191154,43.519173,1,0.4318457082278886,0.3762087942278886,0.0808099982278886,0.0570232466829701,0.0359546124829701,-0.0130549255170299,0,1.0
164,164,164,1.8709993,0.86672264,-0.36527613,-9.76746,0.02770575,0.015645957,-0.009036144,-14.14325,19.255375,43.36952,1,-0.2414339374281384,-0.2972672924281384,-0.5931036524281385,-0.0673403685616496,-0.0899351188616496,-0.1381540688616496,0,1.0
165,165,165,1.8809996,0.8667259,-0.36527377,-9.76746,0.017511418,0.046607256,-0.021766212,-14.14325,19.255375,43.36952,0,0.1775485174615849,0.1215048614615849,-0.1747618785384151,0.126580485844352,0.102440877444352,0.055010171444352,0,1.0
166,166,166,1.8900003,0.99884194,-0.45845118,-9.824444,-0.014127348,0.038214143,-0.014390907,-14.204641,19.255735,43.442688,1,-0.1349255696686252,-0.1911922906686252,-0.4878825956686252,0.3120900738421882,0.2867990553921882,0.2401050653921882,0,1.0
167,167,167,1.8979998,1.0030562,-0.46141234,-9.82624,-0.032867562,0.023867814,-0.001973469,-14.14172,19.191683,43.44385,1,0.3198571345325803,0.2676989525325803,-0.0285279274674196,-0.2331449558239842,-0.2422457622239842,-0.3120561808239842,1,1.0
168,168,168,1.9070005,1.0030645,-0.4614181,-9.8262415,-0.028808376,0.0006299364,0.0077124187,-14.078798,19.12763,43.445015,1,0.1360035673355802,0.0837603973355802,-0.2130924026644197,-0.0005544803484124,-0.0103346247484124,-0.0796250737484124,0,1.0
169,169,169,1.9169989,0.6379476,-0.56965566,-9.771212,-0.032556485,-0.028475285,0.010739724,-14.078798,19.12763,43.445015,0,-0.0320462665975893,-0.0843769355975893,-0.3818544455975893,0.0876276538777948,0.0785521477777947,0.0084412054777947,0,1.0
170,170,170,1.9259996,0.6135731,-0.5767774,-9.7674675,-0.022819089,-0.029078547,0.0041665463,-14.205279,19.192211,43.368523,1,-0.0364028399042848,-0.0888053849042848,-0.3869240789042848,-0.1523420163160062,-0.1592305278160062,-0.2315884908160062,0,1.0
171,171,171,1.9350004,0.61352545,-0.57679135,-9.767462,0.016049849,-0.012059149,-0.0032248134,-14.14172,19.191683,43.44385,1,-0.2245129692055475,-0.2769675272055475,-0.5757476122055476,0.0230597617134206,0.0183872718134206,-0.0562175945865793,0,1.0
172,172,172,1.9439993,0.7991652,-0.44279015,-9.758278,0.040889636,-0.005576037,-0.0036224416,-14.080775,19.25493,43.370598,1,0.2866926538907121,0.2342048338907121,-0.0652557461092879,0.0837010349496303,0.0804679616496303,0.0043098556496303,0,1.0
173,173,173,1.9539995,0.9832274,-0.3078512,-9.747889,0.04933613,0.015682941,-0.0013943173,-14.079245,19.191238,43.44493,1,-0.0222012767462737,-0.0747283307462737,-0.3748665207462738,-0.0103153935019307,-0.0158699045019307,-0.0902430995019307,0,1.0
174,174,174,1.9630003,0.9835869,-0.30758765,-9.747867,0.057120346,0.020287858,-0.004754831,-14.079245,19.191238,43.44493,0,0.0001005679697272,-0.0524875680302727,-0.3532865980302727,0.0319037366748751,0.0238771620748751,-0.0486071193251248,0,1.0
175,175,175,1.9719992,0.9835876,-0.30758715,-9.747867,0.049191974,0.01404104,-0.0030731438,-14.1406355,19.191599,43.518093,1,0.017435462653512,-0.0352362123464879,-0.336679058346488,0.0118582621656091,0.0013114809656091,-0.0692781656343909,0,1.0
176,176,176,2.054,0.82777196,-0.36527377,-9.6498995,0.06762209,0.012568833,0.007009665,-14.14172,19.191683,43.44385,1,-0.059456582853491,-0.113779017853491,-0.410270237853491,-0.0481440909264657,-0.0676877741264657,-0.1142152721264657,0,1.0
177,177,177,2.0629988,0.71460015,-0.47707915,-9.801787,0.048271224,-0.028909007,0.0100002615,-14.080329,19.191322,43.37068,1,0.294633799402865,0.2401329324028649,-0.056774987597135,-0.0592314996692961,-0.0789664862692961,-0.1256506352692962,0,1.0
178,178,178,2.0719995,0.7109174,-0.48064002,-9.806639,0.029411776,-0.04706224,-0.005304405,-14.14325,19.255375,43.36952,1,0.0663967484329212,0.0117206104329212,-0.2856135255670787,-0.0347154112058356,-0.0539380182058356,-0.1019602042058356,0,1.0
179,179,179,2.0810003,0.71091026,-0.480647,-9.806648,0.016531086,-0.03049732,-0.011308163,-14.14325,19.255375,43.36952,0,-0.2214320600145149,-0.272892561014515,-0.567772366014515,-0.0004505119637386,-0.0069911574637386,-0.0690290874637386,1,1.0
180,180,180,2.0889997,0.93033034,-0.5097908,-9.660003,-0.018013587,-0.019510953,-0.017220324,-13.95474,19.253956,43.447006,1,0.1543393107757485,0.1028404307757485,-0.1924128192242514,0.1727096787181195,0.1663969182181195,0.1044154032181195,0,1.0
181,181,181,2.0980005,1.0029227,-0.5190866,-9.610809,-0.045139138,-0.000940499,-0.01627175,-14.079245,19.191238,43.44493,1,0.269550859706351,0.217995379706351,-0.0778051102936489,0.0393271735527731,0.0330624795527731,-0.0265379284472268,0,1.0
182,182,182,2.1079988,1.0030645,-0.5191048,-9.610711,-0.022891002,0.04367362,-0.010887903,-14.079691,19.254847,43.444847,1,-0.1088619758226167,-0.1604919008226167,-0.4569883168226167,0.1907060895064699,0.1845773705064699,0.1281777685064699,0,1.0
183,183,183,2.117999,0.9157226,-0.47614023,-9.831447,-0.025363822,0.039807305,-0.0016981864,-14.079691,19.254847,43.444847,0,-0.2619070682120888,-0.3135916082120888,-0.6105862382120888,-0.0292987350459933,-0.0353594950459933,-0.0902361230459933,0,1.0
184,184,184,2.1269999,0.8862605,-0.46144688,-9.904473,-0.0041666958,0.036622692,0.0027629805,-14.266225,19.128965,43.441776,1,0.0044229246621216,-0.0473168613378783,-0.3448097113378783,-0.0655956505968136,-0.0718154705968136,-0.1276615645968136,0,1.0
185,185,185,2.1359987,0.886203,-0.46141818,-9.904615,0.031010015,0.0084865615,0.00630385,-14.14172,19.191683,43.44385,1,-0.1287885019683401,-0.1805849079683401,-0.47858503196834,0.0386327297806514,0.0322691682806514,-0.0246126547193485,0,1.0
186,186,186,2.144,0.8862029,-0.46141812,-9.904615,0.032646623,-0.03439848,0.0065354165,-14.204195,19.192127,43.442772,1,-0.0563352676498002,-0.1081896406498003,-0.4067064006498003,-0.0601892902015671,-0.0667169432015671,-0.1246316472015671,0,1.0
187,187,187,2.1540003,0.6140603,-0.44222915,-9.630843,0.038591284,-0.049402624,0.011760548,-14.080329,19.191322,43.37068,1,-0.2627596653271155,-0.3146703333271155,-0.6137098033271156,-0.2300857569349881,-0.2360538689349881,-0.2942718789349881,0,1.0
188,188,188,2.1629992,0.6135264,-0.44218934,-9.630306,0.043652356,-0.058019582,-0.0037924603,-14.080329,19.191322,43.37068,0,-0.0898150326622925,-0.1417769036622925,-0.4413413536622925,0.2004134927377535,0.1949923427377535,0.1365524247377535,0,1.0
189,189,189,2.172,0.61352533,-0.44218928,-9.630306,0.01471467,-0.026577916,-0.0059717037,-14.14325,19.255375,43.36952,1,-0.0892346483417314,-0.1412430203417314,-0.4413342803417315,-0.0761220621617497,-0.0810485991617497,-0.1396615221617497,1,1.0
190,190,190,2.1809988,0.98070604,-0.3849627,-9.84416,-0.008451072,0.025579726,-0.018411383,-14.142358,19.128159,43.369686,1,-0.1828295403827809,-0.2352414153827809,-0.532687705382781,0.0981209469591783,0.0853482075591783,0.0166128085591783,0,1.0
191,191,191,2.1890001,0.983582,-0.38450354,-9.845832,0.0051392117,0.0495817,-0.013357164,-14.142166,19.255291,43.443768,1,-0.2946532491423692,-0.3471873621423692,-0.6452491021423692,-0.0649193801245936,-0.0793100056245936,-0.1473358326245936,0,1.0
192,192,192,2.1990004,0.9835876,-0.38450265,-9.845834,0.0024680137,0.052987587,-0.00243056,-14.142166,19.255291,43.443768,0,-0.0488679627572387,-0.1015387957572387,-0.4002097157572387,0.1132576457576934,0.0972668687576934,0.0299149567576934,0,1.0
193,193,193,2.2079992,0.86857086,-0.6305909,-9.730129,-0.010046119,0.023149047,0.0069136284,-14.1412735,19.128075,43.443935,1,0.0451822275566062,-0.0076332984433937,-0.3069092284433938,0.0476609572602839,0.0322612922602839,-0.035024957739716,0,1.0
194,194,194,2.217,0.86672956,-0.6344704,-9.728277,-0.005678635,-0.027244318,0.004746837,-14.140828,19.064466,43.44402,1,-0.2554883735882956,-0.3084337385882956,-0.6083165885882956,0.0326369464838623,0.0191786698838623,-0.0484108241161376,0,1.0
195,195,195,2.2259989,0.8667259,-0.63447803,-9.728273,-0.011545494,-0.044817716,0.008218925,-14.14172,19.191683,43.44385,1,0.0732574764447122,0.0201997864447122,-0.2802926835552877,-0.0402412310829092,-0.0517506230829092,-0.1196312290829092,0,1.0
196,196,196,2.235999,0.73898435,-0.38217413,-9.875304,-0.029955419,-0.037414193,-0.0024326104,-14.14172,19.191683,43.44385,0,0.0906405161925036,0.0374845761925036,-0.2636214938074964,0.0982099242783733,0.0872927032783733,0.0185858612783733,0,1.0
197,197,197,2.245,0.73040396,-0.36530676,-9.885005,-0.001788857,-0.020593425,-0.00845964,-14.076183,19.063854,43.593586,1,0.3502208947831823,0.2969628557831822,-0.0047679342168177,-0.1027107693935524,-0.1144891386935524,-0.1846097186935524,0,1.0
198,198,198,2.2539988,0.7303872,-0.36527383,-9.885022,0.032003623,0.025352148,0.0015266709,-14.204195,19.192127,43.442772,1,-0.1239426399248697,-0.1773105079248697,-0.4796787729248697,-0.0245079560016415,-0.0371519690016415,-0.1086802470016415,0,1.0
199,199,199,2.2629995,0.8186422,-0.42356128,-9.758276,0.036716968,0.029544255,0.0025495954,-14.079245,19.191238,43.44493,1,0.2067969658286108,0.1533115688286108,-0.1497060011713892,0.0385241996356354,0.0251404136356354,-0.0472860963643645,1,1.0
200,200,200,2.2720003,0.90550977,-0.4805355,-9.630556,0.041298766,0.025326435,4.982838e-05,-14.267309,19.12905,43.367527,1,0.1537975522920606,0.0991523412920606,-0.2009414487079393,-0.0035177060823157,-0.0271716410523157,-0.1066595130523157,0,1.0
201,201,201,2.2809992,0.90567946,-0.4806468,-9.630306,0.036274217,0.018127298,-0.004650826,-14.267309,19.12905,43.367527,0,-0.2107711949647565,-0.2656298379647565,-0.5664314779647565,0.0554976147551413,0.0317027470601413,-0.0460989969398586,0,1.0
202,202,202,2.29,0.9056798,-0.480647,-9.630306,0.0037967002,-0.015497217,-0.0060279495,-14.144974,19.191935,43.22111,1,0.1946969051241328,0.1396234111241328,-0.1618708648758671,-0.0721780855890695,-0.0961386006590695,-0.1722546636590695,0,1.0
203,203,203,2.2989988,0.76960975,-0.53822327,-9.943194,-0.019363314,-0.03892063,-0.005855709,-14.14172,19.191683,43.44385,1,-0.0623054517726246,-0.1175907347726246,-0.4197799347726246,-0.0844610302457975,-0.1075426884457975,-0.1859599894457975,0,1.0
204,204,204,2.308999,0.7693411,-0.5383336,-9.943804,-0.016916016,-0.0363793,0.0018204639,-14.018299,19.254484,43.371677,1,-0.190696600049855,-0.246251321049855,-0.549401381049855,0.0708387244520435,0.0490174145120436,-0.0327060804879564,0,1.0
205,205,205,2.3189993,0.83811915,-0.5004768,-9.817058,-0.036087487,-0.029998692,-0.0032948665,-14.018299,19.254484,43.371677,0,-0.0609586880724007,-0.1167058190724007,-0.4206015390724007,0.0605109646374405,0.0394305737374405,-0.0441329792625594,0,1.0
206,206,206,2.328,0.90554786,-0.46149442,-9.689336,-0.027505342,0.0098542925,-0.007249281,-14.1412735,19.128075,43.443935,1,-0.0240339218230314,-0.0799720898230314,-0.3846148198230314,0.0637123084027952,0.0423135496027952,-0.0400637753972047,0,1.0
207,207,207,2.336999,0.9056796,-0.46141827,-9.689086,0.0031944767,0.04159934,-0.0099356,-14.077269,19.063938,43.51934,1,-0.491383408779557,-0.547515555779557,-0.8528940457795571,0.0153572512789899,-0.00635533572101,-0.08747580472101,0,1.0
208,208,208,2.3450003,0.9056798,-0.46141812,-9.689086,0.009980068,0.0595606,-0.0045110933,-14.140189,19.12799,43.518177,1,-0.0317029091140401,-0.0880317541140401,-0.3941348141140401,0.0811625671716618,0.0591564685716618,-0.0207381484283381,0,1.0
209,209,209,2.3539991,0.8086802,-0.4805766,-9.786676,0.019784605,0.053805523,0.0020370493,-14.140189,19.12799,43.518177,0,-0.3928532006286022,-0.4468499176286021,-0.7511197676286021,0.0955341820638353,0.0816501980638353,-0.0122995889361646,1,1.0
210,210,210,2.3649988,0.8082957,-0.48064685,-9.787055,0.039586008,-0.0010937251,0.006634309,-14.142804,19.191767,43.369602,1,0.1533510888178443,0.0992308838178443,-0.2058869661821556,-0.0084660330462444,-0.0220312580462444,-0.1165225620462444,0,1.0
211,211,211,2.3730001,0.808295,-0.480647,-9.787055,0.029446874,-0.041755226,0.010775249,-14.142804,19.191767,43.369602,1,0.051637037685098,-0.0026039203149019,-0.3085746303149019,-0.0964068406958058,-0.1096867746958058,-0.2047077936958058,0,1.0
212,212,212,2.3809996,0.6730309,-0.49973503,-9.787065,0.017626112,-0.065628156,-0.0041210447,-14.080329,19.191322,43.37068,1,0.0933459242950457,0.0389888672950457,-0.2678425927049543,0.043029598130685,0.030578976130685,-0.065797571869315,0,1.0
213,213,213,2.3909998,0.6719584,-0.4998756,-9.787055,0.013101461,-0.06308938,-0.012115218,-14.018938,19.19096,43.29752,1,0.1267909494169927,0.0723260454169927,-0.2353795945830072,-0.0844598954902538,-0.0959792494902538,-0.1938636794902538,0,1.0
214,214,214,2.4000006,0.67195636,-0.4998759,-9.787055,-0.0038588184,-0.014916929,-0.008038322,-14.018938,19.19096,43.29752,0,0.0546963957950498,0.0001319297950498,-0.3084612752049501,-0.127485647854517,-0.138097356854517,-0.237447646854517,0,1.0
215,215,215,2.4089994,1.0870972,-0.48128545,-9.768111,-0.013879021,0.02926904,-0.007139248,-14.079437,19.064106,43.37085,1,-0.2038187461897284,-0.2584773791897283,-0.5679659291897283,0.0261301122853955,0.0154334562853955,-0.0834656537146044,0,1.0
216,216,216,2.4180002,1.1004235,-0.48064825,-9.767462,0.00016500715,0.05084457,-0.00851664,-14.1412735,19.128075,43.443935,1,0.0661645919446434,0.0114061249446434,-0.2989642200553565,-0.0505232280728639,-0.0620191620728639,-0.1590735300728639,0,1.0
217,217,217,2.426999,1.1004493,-0.48064703,-9.767462,0.0023836843,0.066196635,0.0037106264,-14.1412735,19.128075,43.443935,1,0.0402331380813435,-0.0146322569186564,-0.3258679669186565,0.0252446736506347,0.0129711156506348,-0.0822732783493652,0,1.0
218,218,218,2.4369993,0.8524225,-0.49536914,-9.841244,-9.866124e-05,0.031721495,-0.0015259649,-14.1412735,19.128075,43.443935,0,0.2782210084283454,0.2232422664283454,-0.0888439935716545,-0.0455506510249627,-0.0582339000249627,-0.1525571790249627,0,1.0
219,219,219,2.446,0.7695033,-0.49986708,-9.865382,0.0001646548,-0.010795046,-0.0025488408,-14.142804,19.191767,43.369602,1,0.0269226616853637,-0.0281674363146362,-0.3411096563146362,-0.1216147053786693,-0.1336735993786693,-0.2295896213786693,1,1.0
220,220,220,2.4539995,0.76934135,-0.49987587,-9.865429,0.00013081834,-0.03470396,0.0033745647,-14.081222,19.318539,43.370514,1,0.2643300449259896,0.2093075549259896,-0.0986607150740104,0.0696163229599135,0.0540341121599135,-0.0433934548400864,0,1.0
221,221,221,2.4630003,0.7115189,-0.5004768,-9.787667,-0.006099361,-0.06627757,0.008081448,-14.018938,19.19096,43.29752,1,-0.0061326754367363,-0.0612925474367362,-0.3701449074367363,0.0510359453901958,0.0361425321901958,-0.0628225288098041,0,1.0
222,222,222,2.4730005,0.6525947,-0.49987707,-9.708835,0.011189048,-0.05709158,-0.002743024,-14.079883,19.127714,43.370766,1,-0.2189031665121577,-0.2741923905121577,-0.5839399105121577,-0.1218705100762864,-0.1357168158762864,-0.2356596588762864,0,1.0
223,223,223,2.4819994,0.6524795,-0.4998759,-9.708681,0.024914786,0.0045551974,-0.003751187,-14.079883,19.127714,43.370766,0,0.070628883627432,0.015219742627432,-0.295431437372568,-0.0649358597268421,-0.0777460661268421,-0.1786145801268421,0,1.0
224,224,224,2.4910002,0.6524794,-0.4998759,-9.708681,0.02259248,0.030289946,-0.008804903,-14.1412735,19.128075,43.443935,1,0.0186286621565298,-0.0368911558434701,-0.3484542858434701,0.0003595992980583,-0.0114327511019416,-0.1132207881019417,0,1.0
225,225,225,2.499999,1.0599027,-0.40411177,-9.8257885,0.01618971,0.044292092,-0.009750682,-14.077269,19.063938,43.51934,1,0.3204511899201324,0.2648196659201324,-0.0476551040798676,-0.0677072795190227,-0.0808887051190227,-0.1815575561190227,0,1.0
226,226,226,2.5099993,1.0614952,-0.40373158,-9.8262415,0.016979406,0.043561812,-0.0044336715,-14.204641,19.255735,43.442688,1,0.0853003768320895,0.0294975748320895,-0.2841747251679104,-0.0453187621417656,-0.0606879779417656,-0.1596188899417656,0,1.0
227,227,227,2.5199995,1.0614954,-0.4037315,-9.8262415,-0.012999605,-0.006546059,0.0023165522,-14.204641,19.255735,43.442688,0,0.2527837731083785,0.1968352701083785,-0.1177216298916215,0.0305766594558854,0.0135693962558854,-0.0840872687441145,0,1.0
228,228,228,2.5290003,0.73168534,-0.61442757,-9.845764,-0.021494918,-0.036068633,0.00060661003,-14.1412735,19.128075,43.443935,1,-0.1656124208438145,-0.2217069078438145,-0.5371507078438146,0.0294067639700582,0.0141735876700582,-0.0854294113299417,0,1.0
229,229,229,2.5369997,0.73038965,-0.61524755,-9.845834,-0.016065126,-0.04779759,4.977726e-05,-14.079883,19.127714,43.370766,1,-0.0707896339319193,-0.1254384269319193,-0.4360659669319194,0.1330982257272265,0.1228456257272265,0.0222691757272265,1,1.0
230,230,230,2.5460005,0.7303872,-0.61524916,-9.845834,-0.027048059,-0.046194915,-0.0020309007,-14.079245,19.191238,43.44493,1,-0.2380248248319341,-0.2927561188319341,-0.6042987388319341,0.0997209863690229,0.0916436133690229,-0.011119813630977,0,1.0
231,231,231,2.5559988,0.88559896,-0.4620237,-9.748255,-0.020245198,-0.010644754,-0.006157479,-14.079245,19.191238,43.44493,0,0.1094166019587886,0.0546132889587886,-0.2578533810412113,-0.0719870693240614,-0.0800428833240614,-0.1824726283240614,0,1.0
232,232,232,2.5649996,0.8862016,-0.4614193,-9.747869,0.015217503,0.024367608,-0.00945362,-14.018299,19.254484,43.371677,1,0.4612028759914403,0.4063262239914403,0.0929403739914403,0.0339645433606448,0.0257233053606448,-0.0761107536393551,0,1.0
233,233,233,2.5740004,0.8862029,-0.46141812,-9.747867,0.025054967,0.05103844,-0.0035500731,-14.07816,19.191154,43.519173,1,0.1473745367317757,0.0924228937317757,-0.2218768462682243,0.0238593125314226,0.0154343315314226,-0.0858184104685773,0,1.0
234,234,234,2.5829992,0.829636,-0.38694382,-9.842812,0.039755583,0.06343719,-0.0037381474,-14.077714,19.127546,43.519257,1,0.1115951147701947,0.0565656047701946,-0.2586444792298052,-0.024831636985867,-0.033879789985867,-0.135136235985867,0,1.0
235,235,235,2.5929995,0.8277756,-0.3845074,-9.845828,0.062158063,0.029848415,-0.0016487775,-14.1412735,19.128075,43.443935,1,0.1087881741691271,0.0536729171691271,-0.2624504328308729,-0.1366815556057017,-0.1466973306057017,-0.2483970416057018,0,1.0
236,236,236,2.6020002,0.82777196,-0.38450265,-9.845834,0.042331565,-0.016855663,0.009070835,-14.1412735,19.128075,43.443935,0,0.201586856609726,0.146376949609726,-0.1706637103902739,-0.135861669583326,-0.146893332583326,-0.249037031583326,0,1.0
237,237,237,2.610999,0.7256701,-0.5529055,-9.743122,0.006329159,-0.053058967,0.00806138,-14.14325,19.255375,43.36952,1,0.1086484294891643,0.0533357364891643,-0.2646264075108356,-0.0950358314055797,-0.1063114414055797,-0.2090626684055797,0,1.0
238,238,238,2.62,0.710939,-0.57674474,-9.728303,-0.01087136,-0.074189186,-0.0040793284,-14.078607,19.254763,43.51909,1,-0.2751605952280297,-0.3305671242280297,-0.6494587142280297,0.0370943079244972,0.0275195649244972,-0.0762568590755028,0,1.0
239,239,239,2.63,0.71091026,-0.57679135,-9.728273,-0.04167109,-0.025015075,-0.009827671,-14.079691,19.254847,43.444847,1,-0.0039371644172484,-0.0582789914172484,-0.3729219414172484,-0.0392798113622538,-0.0457860013622538,-0.1527447393622538,1,1.0
240,240,240,2.6400003,1.0579197,-0.41462287,-9.875304,-0.0478765,0.022337187,-0.015163664,-14.079691,19.254847,43.444847,0,-0.257704393534709,-0.312101076534709,-0.6277087865347091,0.0732809692696862,0.0668842122696863,-0.0401345677303136,0,1.0
241,241,241,2.6489992,1.0809274,-0.40375277,-9.885005,-0.019163553,0.06317268,-0.008755632,-14.202664,19.128435,43.517097,1,0.352648701325343,0.298187164325343,-0.018379509674657,-0.0487718281407469,-0.0567907451407469,-0.1628717431407469,0,1.0
242,242,242,2.658,1.0809724,-0.40373155,-9.885022,-0.0009798182,0.086050846,0.004658347,-14.203749,19.12852,43.442856,1,-0.1456580112267592,-0.2001988482267591,-0.5177161982267592,0.0950709613564548,0.0854690523564548,-0.0197241466435451,0,1.0
243,243,243,2.6669989,0.89655,-0.46201906,-9.817058,0.016273953,0.053118553,0.009511217,-14.203749,19.12852,43.442856,0,-0.0800691192133085,-0.1347026722133085,-0.4531634522133085,-0.0893136091964492,-0.1000065776964492,-0.2046901256964492,0,1.0
244,244,244,2.676999,0.71127284,-0.51899326,-9.748001,0.032186832,-0.008100984,0.0017605646,-14.230779,19.128618,43.533268,1,-0.177149586711787,-0.231874409711787,-0.551281989711787,-0.1673091207530644,-0.1768620297530644,-0.2825998517530644,0,1.0
245,245,245,2.6859999,0.71091086,-0.5191046,-9.747867,0.051772486,-0.04953254,0.0001875247,-14.230779,19.128618,43.533268,0,-0.1141900885642915,-0.1689955285642915,-0.4893597285642915,0.1117170274088381,0.1033378574088381,-0.0034842185911618,0,1.0
246,246,246,2.6949987,0.71091026,-0.5191048,-9.747867,0.029781211,-0.0751735,-0.00072140933,-14.046087,19.254665,43.387554,1,-0.2083596428100993,-0.2632354448100993,-0.5845657648100994,-0.0423951271823176,-0.0496608331823176,-0.1575180901823176,0,1.0
247,247,247,2.8639994,0.6914333,-0.61524916,-9.865429,0.0022282575,-0.07147713,0.0056750164,-14.169727,19.191864,43.459866,1,0.1015961025918897,0.0415641385918897,-0.2776168714081103,0.0538175539897046,0.0254900649897046,-0.0652920350102953,0,1.0
248,248,248,2.7139997,0.74986404,-0.4037316,-9.787055,0.008698339,-0.007311364,-0.008556441,-14.108033,19.318636,43.46078,1,-0.2129300143750377,-0.2679678203750377,-0.5915763203750377,0.0509624017880113,0.0426474857880113,-0.0663836462119886,0,1.0
249,249,249,2.7230005,0.74986404,-0.4037315,-9.787055,-0.0075477664,0.04091018,-0.007274398,-14.108033,19.318636,43.46078,0,-0.0442215968525634,-0.1025283408525634,-0.4170368408525634,0.1639238801621217,0.1335484727621217,0.0448422927621217,1,1.0
250,250,250,2.731,1.075818,-0.44160715,-9.787074,-0.0047665797,0.07217426,-0.009568189,-14.106053,19.191336,43.535347,1,0.1622881313390941,0.1037966053390941,-0.2112410006609058,0.0494216472556397,0.0181822955556397,-0.0694323694443602,0,1.0
251,251,251,2.7399988,1.0809624,-0.44218814,-9.787055,0.0037124343,0.07598562,-0.007773387,-14.230779,19.128618,43.533268,1,-0.6042339970468168,-0.6630125640468169,-0.9788309140468168,0.0245125146041785,-0.0080434773958214,-0.0939157703958215,0,1.0
252,252,252,2.7489996,1.0809726,-0.44218928,-9.787055,-0.0033434357,0.0427277,-0.0017593307,-14.231225,19.192226,43.533184,1,-0.1437295812604885,-0.2028069332604885,-0.5193905492604884,0.1378090078897575,0.1039638002897575,0.0197807852897575,0,1.0
253,253,253,2.7599993,0.6944861,-0.61390644,-9.864826,-0.007817655,-0.029347291,0.012977545,-14.231225,19.192226,43.533184,0,0.230145228990029,0.1706625289900289,-0.146931691009971,-0.0365741772901903,-0.0692960442901902,-0.1547867382901903,0,1.0
254,254,254,2.769,0.6914392,-0.61524653,-9.865429,0.006825234,-0.068642266,0.011711785,-14.106053,19.191336,43.535347,1,0.1325722141405201,0.0728049741405201,-0.2455707058594798,-0.1168088919094155,-0.1473242786094155,-0.2354826616094155,0,1.0
255,255,255,2.8639994,0.6914333,-0.61524916,-9.865429,0.0022282575,-0.07147713,0.0056750164,-14.169727,19.191864,43.459866,1,0.089400735335133,0.029368771335133,-0.2898122386648669,0.0469696786095004,0.0186421896095004,-0.0721399103904995,0,1.0
256,256,256,2.8730001,0.8046812,-0.39175102,-9.656672,0.008368558,-0.027814854,-0.010019743,-14.168194,19.128172,43.534348,1,0.1221859783259478,0.0619038203259478,-0.2580995396740521,-0.0951226643434912,-0.1230969487434912,-0.2141881337434912,0,1.0
257,257,257,2.8809996,0.808288,-0.3845168,-9.649911,0.02356633,0.014420937,-0.015316715,-14.106053,19.191336,43.535347,1,0.05865266429198,-0.0018857337080199,-0.32270270370802,0.0503460680261365,0.0213621180261365,-0.0683304849738634,0,1.0
258,258,258,2.8909998,0.808295,-0.38450268,-9.6498995,0.019797644,0.05133253,-0.010653502,-14.106053,19.191336,43.535347,0,0.0175252974389191,-0.0432785585610808,-0.3648964185610808,-0.0790543794261272,-0.1090637614261272,-0.1973566884261272,0,1.0
259,259,259,2.8989992,0.94478595,-0.4183034,-9.87293,0.019316113,0.0740159,-0.004443403,-14.169281,19.128256,43.45995,1,0.0475587174953431,-0.0075288605046568,-0.3236030105046568,0.0189844129818532,0.0129930279818532,-0.0741307580181467,1,1.0
260,260,260,2.9089994,0.96407294,-0.42295128,-9.904555,0.024948217,0.03589577,0.0014369303,-14.169086,19.255388,43.53418,1,-0.1636644932549848,-0.2188105272549848,-0.5356698072549848,-0.0228495174455051,-0.0298549044455051,-0.1172112794455051,0,1.0
261,261,261,2.9169989,0.9641107,-0.42296037,-9.904615,0.014504801,-0.016375395,0.008483865,-14.106249,19.064203,43.461117,1,-0.3365641503325723,-0.3917778053325723,-0.7094245153325722,-0.0287200016711864,-0.0367486726711864,-0.1243639106711864,0,1.0
262,262,262,2.926999,0.8478576,-0.5004768,-9.787665,-0.013381756,-0.05271973,0.004715147,-14.106249,19.064203,43.461117,0,-0.3214066589285674,-0.3766965309285674,-0.6951329609285675,0.0737228503790227,0.0651216493790227,-0.0227715496209772,0,1.0
263,263,263,2.9359999,0.73061657,-0.57664233,-9.669723,-0.0131770335,-0.08389399,-0.00040661634,-14.108674,19.255112,43.38647,1,-0.0584941281044645,-0.1138540571044645,-0.4330833671044645,-0.1184657004215616,-0.1253976024215616,-0.2136893074215616,0,1.0
264,264,264,2.9449987,0.73038757,-0.57679105,-9.669493,-0.023413876,-0.057588313,0.0041182195,-14.04302,19.127281,43.53651,1,0.1320898324622711,0.0766753414622711,-0.2433503085377288,-0.0043236658822733,-0.0095229828822734,-0.0981710338822734,0,1.0
265,265,265,2.9539995,0.7303872,-0.57679135,-9.669493,-0.029397545,-0.0068301116,3.8350416e-05,-14.106694,19.127811,43.461033,1,0.0809924158321889,0.0255390098321889,-0.295286020167811,-0.0478881676969738,-0.0513419666969738,-0.1403177086969738,0,1.0
266,266,266,2.9639997,1.0414122,-0.36568922,-9.884604,0.005110461,0.040967986,-0.00607943,-14.16864,19.19178,43.534264,1,-0.0034702212030414,-0.0589623092030414,-0.3805845692030414,0.0134038979934012,0.0081625009934012,-0.0799974580065987,0,1.0
267,267,267,2.9730005,1.0420173,-0.36527458,-9.885022,0.033207655,0.08940725,-0.008324618,-14.16864,19.19178,43.534264,0,-0.2334100101104856,-0.2889580141104856,-0.6113698841104857,-0.0088415363192854,-0.0160327353192854,-0.1033505973192854,0,1.0
268,268,268,2.9819994,1.0420187,-0.36527377,-9.885022,0.041298725,0.08456626,-0.0064855306,-14.229692,19.128534,43.607666,1,-0.1300767881730423,-0.1856982091730424,-0.5088923891730424,-0.0084923854233182,-0.0176343234233182,-0.1041612754233183,0,1.0
269,269,269,2.9910002,0.754448,-0.4977915,-9.634304,0.03886806,0.030470004,-0.0014492344,-14.230779,19.128618,43.533268,1,-0.1190723897349518,-0.1747798877349518,-0.4987500577349518,-0.1100151415328546,-0.1194175745328546,-0.2054010205328546,1,1.0
270,270,270,2.999999,0.749873,-0.49987182,-9.630314,0.03657102,-0.037687384,0.0057951408,-14.16864,19.19178,43.534264,1,-0.0440782930422158,-0.1002473390422158,-0.4182823190422158,-0.0522785024530617,-0.0679244148530617,-0.1498646418530617,0,1.0
271,271,271,3.0089998,0.74986416,-0.49987587,-9.630306,-0.0053781713,-0.09408153,0.0074843965,-14.16864,19.19178,43.534264,0,-0.1860510188333293,-0.2423578258333293,-0.5611282458333293,0.0093579431051549,-0.005616956194845,-0.087104026194845,0,1.0
272,272,272,3.0180006,0.6951612,-0.46389684,-9.905919,-0.023157189,-0.1034121,-0.0037888577,-14.043467,19.19089,43.536427,1,0.1279708854225635,0.0715318254225635,-0.2479733745774365,0.0599384365062441,0.0454523545062441,-0.0369600844937558,0,1.0
273,273,273,3.0269995,0.6914406,-0.46142298,-9.924175,-0.008632398,-0.048766986,-0.0065411245,-14.04302,19.127281,43.53651,1,-0.3044839694567083,-0.3610519974567083,-0.6813098274567083,0.0475834607133131,0.0334029047133131,-0.0514268832866868,0,1.0
274,274,274,3.0369997,0.6914333,-0.46141812,-9.924211,-0.018265588,0.02865835,-0.008545513,-14.170174,19.255472,43.45978,1,-0.0014287401424837,-0.0581644221424838,-0.3794594521424838,-0.1647984350974586,-0.1785606664974586,-0.2665919284974586,0,1.0
275,275,275,3.0460005,1.1899408,-0.4425085,-9.69278,-0.0043761693,0.08236201,-0.0052283043,-14.170174,19.255472,43.45978,0,-0.2402459195211153,-0.2971074315211153,-0.6191950015211154,-0.0198401847808412,-0.0344615514808412,-0.1212590014808412,0,1.0
276,276,276,3.0549994,1.1978189,-0.4421899,-9.689094,0.016455125,0.09472315,-0.0026377868,-14.166467,19.191612,43.68306,1,-0.1617259081122581,-0.2187260291122581,-0.5415793891122581,0.0003044452484637,-0.0158821091515362,-0.0992628861515362,0,1.0
277,277,277,3.0640001,1.1978343,-0.44218928,-9.689086,0.009227521,0.055390134,0.005766569,-14.231225,19.192226,43.533184,1,0.0807514557942913,0.0235987317942913,-0.2999899282057087,0.0823874108455537,0.0646543474455537,-0.0153682705544462,0,1.0
278,278,278,3.072999,0.61854684,-0.5096405,-9.826395,0.0015216547,0.012916213,0.0016347793,-14.231866,19.128702,43.45887,1,-0.0598458027372843,-0.1171635757372843,-0.4414603557372843,0.0205596278084633,0.0022361868084633,-0.0763789931915366,0,1.0
279,279,279,3.0819998,0.5357795,-0.5190863,-9.845798,0.010992231,-0.05265144,-0.00030052225,-14.231866,19.128702,43.45887,0,-0.0176214288869098,-0.0740695088869098,-0.3941064988869098,0.0046713485311992,-0.0120770290688007,-0.0982434240688007,1,1.0
280,280,280,3.0899992,0.5356201,-0.5191045,-9.845834,0.009766637,-0.09770685,0.0052938107,-14.170174,19.255472,43.45978,1,-0.1650233353511419,-0.2215685193511419,-0.542128965351142,-0.0815959032894552,-0.0972197268894552,-0.1855335148894552,0,1.0
281,281,281,3.099,0.53561753,-0.5191048,-9.845834,0.003157094,-0.09851514,0.0035426167,-14.043467,19.19089,43.536427,1,-0.0077355831295959,-0.0644139041295959,-0.3857834241295959,0.0751110400870922,0.0611464657870922,-0.0303327142129077,0,1.0
282,282,282,3.1079988,0.8077648,-0.4231505,-9.689394,0.018575761,-0.057921175,-0.009741017,-14.170368,19.12834,43.38556,1,-0.0900463581268658,-0.1468516741268659,-0.4690424041268659,0.0936938527884869,0.0793667677884868,-0.0115214792115131,0,1.0
283,283,283,3.117999,0.8082949,-0.42296043,-9.689086,0.0136630535,0.027183134,-0.006051023,-14.104521,19.127644,43.609825,1,-0.2178669190690006,-0.2748480430690005,-0.5981228880690006,-0.0368375456677483,-0.0518205483677483,-0.1416175853677483,0,1.0
284,284,284,3.1279993,0.808295,-0.42296037,-9.689086,0.013274409,0.09725779,-0.020273704,-14.104521,19.127644,43.609825,0,-0.0801444916338996,-0.1372626896338996,-0.4613420656338996,0.0416605891378261,0.0261828796378261,-0.0628097343621738,0,1.0
285,285,285,3.137,1.1387591,-0.40377143,-9.806421,0.023635771,0.099711865,-0.011649041,-14.167554,19.191696,43.60866,1,0.043521390199977,-0.0137441888000229,-0.338615508800023,-0.0542697102065263,-0.0715857382065263,-0.1585536122065263,0,1.0
286,286,286,3.145999,1.139402,-0.40373158,-9.806648,0.014560181,0.059488352,0.0028223656,-14.167554,19.191696,43.60866,1,0.2035385560500932,0.1461086260500932,-0.1795362839499067,-0.2207965885802665,-0.2400048989802665,-0.3249478769802665,0,1.0
287,287,287,3.1540003,1.1394032,-0.4037315,-9.806648,0.0046726237,-0.009862147,0.013786796,-14.170174,19.255472,43.45978,1,0.4097706177365725,0.3521593377365725,0.0257589077365724,0.0898399400338395,0.0687463672338395,-0.0142086287661604,0,1.0
288,288,288,3.165,0.6369681,-0.55637014,-9.7677765,-0.008422346,-0.09625015,0.0044246125,-14.170174,19.255472,43.45978,0,0.2853593337356408,0.2275613167356408,-0.0995892872643591,-0.0281108997808039,-0.0481150117808039,-0.1322882767808039,0,1.0
289,289,289,3.172,0.6330101,-0.55756015,-9.767462,-0.019195143,-0.10317973,0.002175484,-14.1065,19.254944,43.535263,1,-0.1318319635035686,-0.1870895705035686,-0.5100564905035686,-0.0549398542900736,-0.0646747107900736,-0.1555270827900736,1,1.0
290,290,290,3.1820002,0.63300246,-0.5575625,-9.767462,-0.03306078,-0.0620418,-0.011366275,-14.106053,19.191336,43.535347,1,0.2611802518001168,0.2058432238001168,-0.1179498161998832,-0.0591568031599667,-0.0670702241599667,-0.1597895101599667,0,1.0
291,291,291,3.1899996,1.0164741,-0.36829707,-9.728906,-0.011283523,-0.0028058244,-0.011735537,-14.107141,19.19142,43.46095,1,0.1469248246252844,0.0915181556252843,-0.2331103583747156,-0.0887159814262366,-0.0970875074262366,-0.1891266694262366,0,1.0
292,292,292,3.1999998,1.0225298,-0.36527967,-9.728275,0.019932088,0.081049055,-0.0064995047,-14.105607,19.127728,43.53543,1,-0.0128238595741663,-0.0683141935741663,-0.3937611395741663,-0.00283001719583,-0.01304996719583,-0.10287373819583,0,1.0
293,293,293,3.2090006,1.0225415,-0.36527377,-9.728273,0.033788122,0.089897834,-0.00013337964,-14.105607,19.127728,43.53543,0,0.2405059924253015,0.1849154004253015,-0.1413302295746984,-0.0735728319705091,-0.0856334319705091,-0.1732872439705091,0,1.0
294,294,294,3.2179995,0.83522797,-0.46637556,-9.711282,0.035858538,0.06315358,-0.0002787269,-14.230139,19.192142,43.607582,1,-0.4768605698649787,-0.5325670088649788,-0.8595928438649787,0.0591865702677843,0.0459176112677843,-0.0401707587322156,0,1.0
295,295,295,3.2270002,0.80834764,-0.48061916,-9.708685,0.035387874,0.023761898,-0.006940916,-14.232312,19.19231,43.458786,1,0.2374567907788412,0.1816322877788412,-0.1461674222211588,0.1752034474047836,0.1622369904047836,0.0763523044047835,0,1.0
296,296,296,3.2370005,0.80829513,-0.48064697,-9.708681,0.0071571837,-0.053124607,0.0019966,-14.106053,19.191336,43.535347,1,0.1795078064857798,0.1235679364857798,-0.2050039335142201,0.0400715382056915,0.0273983572056915,-0.0582980287943084,0,1.0
297,297,297,3.2459993,0.7504728,-0.49086234,-9.8072605,-0.02067164,-0.09534418,0.0035172342,-14.106053,19.191336,43.535347,0,-0.2190279944044404,-0.2750805194044404,-0.6044233994044405,0.0823276234501767,0.0700318004501767,-0.0159043455498232,0,1.0
298,298,298,3.255,0.6915486,-0.4998583,-9.904427,-0.016428074,-0.07979155,0.0016707599,-14.044554,19.190973,43.46203,1,0.2375291182784737,0.1813697302784737,-0.1487573397215262,-0.0969232548749501,-0.1083664318749501,-0.1967270468749501,0,1.0
299,299,299,3.263999,0.6914334,-0.49987584,-9.904615,-0.03718871,-0.053990792,-0.0022572326,-14.043467,19.19089,43.536427,1,-0.3078871882496262,-0.3605074252496262,-0.6837486352496263,-0.0275383681305496,-0.0246927231305496,-0.1083416451305496,1,1.0
300,300,300,3.2739992,1.0569307,-0.4136464,-9.713884,-0.016625803,0.059192944,-0.013392407,-14.105162,19.06412,43.535515,1,-0.0839381138854142,-0.1365175038854142,-0.4607797238854142,-0.2573076778506026,-0.2539103058506026,-0.3392189918506026,0,1.0
301,301,301,3.2839994,1.17812,-0.38455957,-9.650024,0.012753361,0.10770774,-0.007831714,-14.105162,19.06412,43.535515,0,0.105151334077734,0.052593649077734,-0.272419225922266,-0.0618199222567737,-0.0604089102567736,-0.1418726902567737,0,1.0
302,302,302,3.2930002,1.1783569,-0.38450277,-9.6498995,0.01782936,0.111612305,0.00012725142,-14.167108,19.128088,43.608746,1,-0.0711680869418468,-0.1237220429418468,-0.4494507729418468,-0.0650742802174464,-0.0656566662174464,-0.1432737162174464,0,1.0
303,303,303,3.301999,1.1783571,-0.38450265,-9.6498995,0.022618387,0.060411528,0.0023021963,-14.230139,19.192142,43.607582,1,0.0793182890376732,0.0267502090376732,-0.2996600969623267,0.1579398246452999,0.1553837536452999,0.0815410106452999,0,1.0
304,304,304,3.3830004,1.1783571,-0.42296037,-9.845834,0.02109358,0.05515947,0.0036823752,-14.169086,19.255388,43.53418,1,-0.082265689326138,-0.139053859326138,-0.463990089326138,-0.1107584288924284,-0.1379135398924284,-0.2026306798924284,0,1.0
305,305,305,3.3919992,0.6161122,-0.6250138,-9.743122,-0.0008162597,-0.027168136,0.009059544,-14.107141,19.19142,43.46095,1,0.1642213593101081,0.1071830733101081,-0.2183293926898918,0.0527536199059161,0.0253210199059161,-0.0389078000940838,0,1.0
306,306,306,3.4019995,0.53577477,-0.6536509,-9.728303,-0.009220102,-0.08223921,0.008956341,-14.107141,19.19142,43.46095,0,0.0690371798928649,0.0117668228928649,-0.3143358021071351,-0.1158519724958628,-0.1399748844958628,-0.2069090224958628,0,1.0
307,307,307,3.4110003,0.5356178,-0.6537068,-9.728273,-0.033400975,-0.11776501,0.007441244,-14.043913,19.254498,43.536343,1,0.212152976495732,0.154680490495732,-0.172036624504268,-0.0213321440406156,-0.0421223550406156,-0.1117400360406156,0,1.0
308,308,308,3.4199991,0.76964545,-0.37999585,-9.72858,-0.014744497,-0.0872398,-0.0009254235,-14.043662,19.063757,43.462196,1,-0.3954932215337831,-0.4531398465337831,-0.7804938465337832,0.0082953716272708,-0.0105481353727291,-0.0817956973727292,0,1.0
309,309,309,3.429,0.84709734,-0.28853726,-9.728273,0.013534928,-0.0075560105,-0.0057604685,-14.042575,19.063673,43.536594,1,-0.057350242332714,-0.115175980332714,-0.443165340332714,0.0436688058592904,0.0226609588592904,-0.0472361111407095,0,1.0
310,310,310,3.4390001,0.8472489,-0.2883583,-9.728273,0.034113303,0.07495614,-0.007732846,-14.167108,19.128088,43.608746,1,0.0793117015818492,0.0212160265818492,-0.3076009334181507,0.0939211376195323,0.0699236926195323,0.0018969826195323,0,1.0
311,311,311,3.447999,1.0228459,-0.43287528,-9.713884,0.038702488,0.10654712,-0.0077362154,-14.167108,19.128088,43.608746,0,-0.4615965772700344,-0.5179194812700345,-0.8417445512700344,-0.1661855093427286,-0.1870688808427286,-0.2546999508427287,1,1.0
312,312,312,3.4579992,1.0808591,-0.4805537,-9.708691,0.03625182,0.07786285,0.0026053889,-14.231225,19.192226,43.533184,1,-0.055602379125604,-0.112116407125604,-0.4365401931256041,-0.0318016550226437,-0.0533902050226437,-0.1187994700226437,0,1.0
313,313,313,3.467,1.0809723,-0.48064682,-9.708681,0.0017284715,0.004366782,0.0037568924,-14.16864,19.19178,43.534264,1,-0.422921242537454,-0.479632679537454,-0.804635304537454,-0.0764784016858272,-0.0987611486858272,-0.1619795716858272,0,1.0
314,314,314,3.4749994,1.0809726,-0.480647,-9.708681,-0.024177413,-0.04362945,-3.7753365e-05,-14.106946,19.318552,43.53518,1,-0.1223934429575343,-0.1793085459575343,-0.5048703299575343,-0.1891156154430023,-0.2120869064430023,-0.2731214254430023,0,1.0
315,315,315,3.4849997,0.556124,-0.55741465,-9.786904,-0.02267836,-0.10405308,0.00086631114,-14.106946,19.318552,43.53518,0,0.1723522927820483,0.1152389347820482,-0.2108824452179517,0.165817757462128,0.144809651462128,0.081362198462128,0,1.0
316,316,316,3.4940004,0.5550965,-0.5575622,-9.787055,-0.034314115,-0.093855284,0.008589607,-14.106694,19.127811,43.461033,1,-0.2652702160315165,-0.3225631760315165,-0.6492672860315165,-0.1187485537098932,-0.1376599667098932,-0.2036953667098932,0,1.0
317,317,317,3.5029993,0.5550945,-0.5575625,-9.787055,-0.035552863,-0.03847503,-0.009338115,-14.04302,19.127281,43.53651,1,0.0729477728659162,0.0154941188659162,-0.3118157911340838,0.0771569193925211,0.0603570023925211,-0.0082205426074788,0,1.0
318,318,318,3.512,1.0595223,-0.32772207,-9.65044,-0.00449752,0.025459493,-0.006624835,-14.104521,19.127644,43.609825,1,-0.0716096202231727,-0.1292222602231727,-0.4571378052231727,-0.0356740506832058,-0.0544624296832058,-0.1201364226832058,0,1.0
319,319,319,3.5220003,1.0614918,-0.32681778,-9.6498995,0.020086931,0.09761776,-0.008230641,-14.16864,19.19178,43.534264,1,-0.0205770238253253,-0.0783695778253253,-0.4068606518253253,0.0085384034775545,-0.0126508965224454,-0.0748753765224455,0,1.0
320,320,320,3.6039991,1.1783276,-0.42296985,-9.708681,0.014622383,0.122088835,-1.1892089e-05,-14.292279,19.12898,43.606583,1,-0.0087959817791377,-0.0648846827791377,-0.3951104677791378,0.0052859083345438,-0.0060569986654561,-0.0750694516654562,0,1.0
321,321,321,3.6139994,1.1783571,-0.4229604,-9.708681,0.021300929,0.081816986,0.008887054,-14.292279,19.12898,43.606583,0,-0.437228250160903,-0.493426054160903,-0.824259084160903,-0.0765387675628566,-0.0894383635628566,-0.1553780785628566,0,1.0
322,322,322,3.6239996,0.65019685,-0.50723696,-9.760266,0.038994063,0.022807693,-0.0012034785,-14.168194,19.128172,43.534348,1,-0.3587366246691543,-0.4150560586691543,-0.7464712836691543,-0.0626864805768733,-0.0761802555768733,-0.1406440185768733,0,1.0
323,323,323,3.6309996,0.57471913,-0.5190816,-9.7674465,0.041491587,-0.058147915,-0.000984265,-14.170174,19.255472,43.45978,1,-0.1254203960120317,-0.1827010140120317,-0.5100301740120318,-0.0471112639368399,-0.0684255875368399,-0.1407038055368399,1,1.0
324,324,324,3.6400003,0.5745717,-0.5191047,-9.76746,0.01706387,-0.12671115,0.0040365253,-14.044107,19.127365,43.462112,1,0.1456234010386698,0.0881581470386698,-0.2398316179613302,-0.0638010568356646,-0.0835259735356646,-0.1580313255356646,0,1.0
325,325,325,3.6500006,0.720953,-0.46171862,-9.679595,0.005363451,-0.10985068,-0.0009430142,-14.044107,19.127365,43.462112,0,0.4232899143170235,0.3656535023170235,0.0369845723170235,-0.0109722507874228,-0.0295538607874228,-0.1054871167874228,0,1.0
326,326,326,3.6589994,0.7692466,-0.44222742,-9.649956,0.0056843804,-0.06599657,-0.0025497356,-14.106053,19.191336,43.535347,1,-0.2221787904236805,-0.2799826434236805,-0.6093317034236805,0.0516070923278965,0.0329595549278965,-0.0422165170721034,0,1.0
327,327,327,3.742999,0.9178719,-0.34996954,-9.671348,0.015685778,-0.038994543,-0.0033465172,-14.0577345,19.127432,43.490772,1,0.0676216064823436,0.0109529464823436,-0.3160485635176563,-0.1868968994260905,-0.1947336974260905,-0.2596070664260905,0,1.0
328,328,328,3.676999,0.769341,-0.44218928,-9.6498995,-0.0054690726,0.09719535,-0.019780334,-13.980433,19.126835,43.537594,0,0.0434847485515733,-0.0146565054484266,-0.3453437754484266,-0.1731783969150144,-0.1920047685150144,-0.2655333625150144,0,1.0
329,329,329,3.6869993,1.215566,-0.4230402,-9.786524,0.0037416385,0.12105051,-0.011982883,-13.980433,19.126835,43.537594,0,-0.0608396425476131,-0.1191575825476131,-0.4504955725476132,0.0515362867802519,0.0310061627802519,-0.039973927219748,0,1.0
330,330,330,3.696,1.2173077,-0.42296055,-9.787055,0.0026823224,0.09578794,0.0005951988,-14.246745,19.128855,43.4132,1,0.1758671237310673,0.1173561497310673,-0.2146086902689326,-0.1458036313784379,-0.1681721383784379,-0.2365011223784379,0,1.0
331,331,331,3.704999,1.217311,-0.42296037,-9.787055,-0.0017654434,0.029759143,0.010116491,-14.182825,19.255457,43.56276,1,-0.2495220955839804,-0.3082425425839804,-0.6408106475839803,0.0332408420539572,0.0090658290539572,-0.0566818509460427,0,1.0
332,332,332,3.7139997,0.48148525,-0.59064966,-9.787094,0.001984059,-0.058521613,0.010847972,-14.244574,19.128687,43.561844,1,-0.0928813765735941,-0.1518197195735941,-0.4849780845735941,0.144232937307123,0.121008101307123,0.054251941307123,0,1.0
333,333,333,3.724,0.45771548,-0.59601897,-9.787055,-0.020447258,-0.10380686,0.006834217,-14.0577345,19.127432,43.490772,1,-0.0403668966180587,-0.0968839296180587,-0.4227277996180587,0.0511531407206326,0.0401794207206326,-0.0211762382793673,1,1.0
334,334,334,3.7340002,0.45770973,-0.5960203,-9.787055,-0.011759395,-0.09070052,-0.014247106,-14.0577345,19.127432,43.490772,0,0.01225026401391,-0.0443519509860899,-0.3707639459860899,0.0317049322043529,0.0237502622043529,-0.041135361795647,0,1.0
335,335,335,3.742999,0.9178719,-0.34996954,-9.671348,0.015685778,-0.038994543,-0.0033465172,-14.0577345,19.127432,43.490772,1,-0.1418127026080344,-0.1984813626080344,-0.5254828726080345,-0.1402021337152429,-0.1480389317152429,-0.2129123007152429,0,1.0
336,336,336,3.7519999,0.9251425,-0.34605256,-9.669497,0.025182558,0.046913594,-0.0034624597,-14.182825,19.255457,43.56276,1,0.1739503815321071,0.117203702532107,-0.2103718574678929,0.135278148730489,0.125769075730489,0.063072354730489,0,1.0
337,337,337,3.7599993,0.9251568,-0.3460449,-9.669493,0.033554595,0.081081174,-0.0072909896,-14.121268,19.255095,43.489525,1,0.099512244822185,0.042672410822185,-0.2854576791778149,-0.0253437906009839,-0.0365357136009839,-0.097073286600984,0,1.0
338,338,338,3.7699995,0.9800118,-0.45428243,-9.798153,0.048321694,0.10586264,-0.0072479337,-14.121268,19.255095,43.489525,0,-0.0989073472873783,-0.1558540672873783,-0.4845211772873783,-0.0353948533951555,-0.0477126373951555,-0.1068213843951555,0,1.0
339,339,339,3.8639994,0.9835806,-0.4614042,-9.806632,0.026150798,0.07070214,-0.0023501136,-14.120822,19.191486,43.48961,1,-0.212187104315343,-0.2692470873153429,-0.598443217315343,-0.0734798496260953,-0.0863294536260953,-0.1448026876260953,0,1.0
340,340,340,3.8730001,0.9835876,-0.4614181,-9.806648,-0.0010460789,-0.006465288,-0.008793461,-14.121268,19.255095,43.489525,1,-0.2186761924573427,-0.2758542254573427,-0.6055738794573426,0.1025863973793442,0.0892075703793442,0.0313248743793442,0,1.0
341,341,341,3.881999,0.7796882,-0.52932006,-9.826854,-0.018107474,-0.072306246,0.0024199705,-14.183464,19.191933,43.488525,1,-0.0999536569667567,-0.1572536799667567,-0.4874925999667567,0.033972841640139,0.020584157640139,-0.0373618303598609,0,1.0
342,342,342,3.8919992,0.5749721,-0.59589,-9.845798,-0.039512984,-0.09875145,0.0045603006,-14.183464,19.191933,43.488525,0,-0.2069241804934337,-0.2643337444934338,-0.5951083444934337,-0.1106265743029414,-0.1215350813029414,-0.1826792123029414,0,1.0
343,343,343,3.9000006,0.5745722,-0.59602,-9.845834,-0.05685134,-0.08366502,-0.0014645554,-14.057096,19.190956,43.565006,1,0.0771900490547569,0.0219749760547569,-0.305544093945243,0.1394478840963633,0.1374904520963633,0.0628419920963633,1,1.0
344,344,344,3.9840002,0.6719567,-0.4998758,-9.669495,-0.042037234,-0.02291938,-0.012637623,-13.995538,19.190596,43.49177,1,-0.0041759598176168,-0.0598755898176168,-0.3933778498176168,0.0090547561091086,0.0037316291091086,-0.0694092888908913,0,1.0
345,345,345,3.9919996,0.67195636,-0.4998759,-9.669493,-0.024996448,0.030197784,-0.008162931,-14.11865,19.191319,43.638245,1,-0.1466692730831379,-0.2056367230831379,-0.535424997083138,0.0548161594719579,0.0290072664719579,-0.051850317528042,1,1.0
346,346,346,3.999999,1.0554851,-0.40981564,-9.945105,-0.0191845,0.07887816,-0.0071652164,-14.181932,19.12824,43.562927,1,-0.3506782245934926,-0.4098017345934926,-0.7400753145934926,-0.046790415854781,-0.073204758854781,-0.154062868854781,0,1.0
347,347,347,4.0099993,1.0809664,-0.40373302,-9.963393,-0.004468577,0.114149936,-0.0057737725,-14.181932,19.12824,43.562927,0,0.0474742995976828,-0.0119790944023171,-0.3432220644023172,0.0739799445045829,0.0454240762045829,-0.035304601795417,0,1.0
348,348,348,4.019,1.0809726,-0.4037315,-9.963397,0.0268239,0.05139238,0.0027467483,-14.181932,19.12824,43.562927,1,-0.3682416887890868,-0.4279591087890868,-0.7599286187890868,-0.031202109699741,-0.061316151699741,-0.142042746699741,0,1.0
349,349,349,4.027999,0.6281711,-0.53416485,-9.640753,0.036194567,-0.025429366,0.016925542,-14.184104,19.128408,43.414284,1,0.0947065574232828,0.0347165384232828,-0.2979809715767171,0.0424979254296838,0.0127543952296838,-0.0684717017703161,0,1.0
350,350,350,4.0369997,0.61355394,-0.5383255,-9.630326,0.033083774,-0.097181305,0.010445677,-14.182379,19.191849,43.562843,1,-0.3067230649833585,-0.3669728069833585,-0.7004051069833586,-0.0549197163670215,-0.0828978533670214,-0.1649447083670215,0,1.0
351,351,351,4.0460005,0.6135254,-0.53833365,-9.630306,0.03948335,-0.13985722,0.0004066692,-13.995984,19.254204,43.491688,1,-0.0309860667700859,-0.0914799027700859,-0.4256540267700859,-0.1671602331212723,-0.1934275586212723,-0.2762220576212723,0,1.0
352,352,352,4.055999,0.92043966,-0.3702312,-9.750469,0.030233502,-0.07676911,-0.0065040723,-13.995984,19.254204,43.491688,0,0.2972479343740043,0.2365235313740042,-0.0983978386259957,0.1085461078143877,0.0828608774143877,3.732241438779427e-05,0,1.0
353,353,353,4.065999,0.96402544,-0.34609213,-9.7674265,0.010641554,-0.01606019,-0.022225799,-14.059267,19.191124,43.416363,1,0.5151147506110533,0.4541502186110532,0.1184902846110532,0.0512908692167156,0.0235967112167156,-0.0576979917832843,0,1.0
354,354,354,4.0740004,0.96411055,-0.346045,-9.76746,0.010695357,0.060259186,-0.018574687,-14.058181,19.19104,43.49069,1,0.1776989194272882,0.1164759814272882,-0.2199086585727117,0.1605727231623304,0.1308400211623304,0.0510971201623304,0,1.0
355,355,355,4.082,0.9641107,-0.3460449,-9.76746,0.0014705731,0.13095544,-0.013074036,-14.183464,19.191933,43.488525,1,0.2518066941613752,0.1903070581613751,-0.1467884268386248,0.0410016112001277,0.0092472522001277,-0.0689866827998722,1,1.0
356,356,356,4.092,1.0029907,-0.4995778,-9.767464,-0.011587296,0.10689386,-0.00080600113,-14.183464,19.191933,43.488525,0,0.1000562170504982,0.0429311510504982,-0.2881586789495017,-0.1584946082439526,-0.1728917342439526,-0.2471529502439526,0,1.0
357,357,357,4.100999,1.0030645,-0.4998753,-9.767462,-0.011580251,0.03763899,0.0031840482,-14.247191,19.192463,43.413116,1,0.1787617206529923,0.1215067246529923,-0.2102474053470076,-0.0469294936821228,-0.0614028856821228,-0.1347765906821229,0,1.0
358,358,358,4.1099997,1.0030645,-0.4998759,-9.767462,-0.0063005066,-0.036471188,0.00917211,-14.245466,19.255903,43.561676,1,-0.1427410917660633,-0.2001265597660633,-0.5325372197660634,-0.0325583362944816,-0.0470786342944816,-0.1195978242944816,0,1.0
359,359,359,4.117999,0.40164208,-0.5381881,-9.708915,-0.010148358,-0.12481414,0.011888021,-14.120822,19.191486,43.48961,1,-0.0674594486332769,-0.1249658446332769,-0.458040254633277,-0.1055246793459275,-0.1177351253459275,-0.1929259053459275,0,1.0
360,360,360,4.1279993,0.3992834,-0.53833336,-9.708681,-0.005006683,-0.13591033,0.013403562,-13.995091,19.126987,43.491856,1,-0.1471327981223065,-0.2047376661223065,-0.5385022261223065,0.0230192669750871,0.0133446829750871,-0.0648164140249128,0,1.0
361,361,361,4.137,0.3992788,-0.53833365,-9.708681,0.022413956,-0.092757784,0.007658924,-13.995091,19.126987,43.491856,0,0.1017798111813857,0.0440991571813857,-0.2903818478186142,-0.2409283214941405,-0.2480980884941405,-0.3291462264941405,0,1.0
362,362,362,4.145999,1.07034,-0.33013976,-9.727987,0.03794168,-0.014394078,-0.0018656882,-13.994646,19.063377,43.49194,1,0.1240860946238337,0.0663430356238337,-0.2688698683761662,0.0345304231765567,0.0267322511765567,-0.0536085268234433,0,1.0
363,363,363,4.1549997,1.0809518,-0.32682252,-9.728273,0.04768557,0.0970067,-0.016301377,-13.994452,19.190512,43.56609,1,-0.3067608676204596,-0.3645856016204596,-0.7005085876204596,0.109817233709775,0.099461593709775,0.022009220709775,0,1.0
364,364,364,4.165,1.0809726,-0.32681605,-9.728273,0.05162766,0.15637702,-0.020947075,-14.307217,19.129133,43.56076,1,0.0381405836897864,-0.0197889343102135,-0.3563961843102135,0.0502186365991213,0.0372877365991213,-0.0373237224008786,0,1.0
365,365,365,4.1729994,0.953231,-0.543216,-9.746719,0.022284832,0.14375363,-0.016623318,-14.307217,19.129133,43.56076,0,-0.2903345871604483,-0.3477531451604483,-0.6784752651604482,0.0354934864216545,0.0194630454216545,-0.0514244235783454,1,1.0
366,366,366,4.182,0.9446506,-0.5575345,-9.747865,-0.030776143,0.05923127,-0.003444464,-14.246105,19.192379,43.487442,1,0.1435264614004817,0.0859668774004817,-0.2453914125995182,-0.001567323309429,-0.016868736309429,-0.087362055309429,0,1.0
367,367,367,4.190999,0.94463384,-0.5575624,-9.747867,-0.050929904,-0.06888686,0.005489391,-14.308302,19.129217,43.486443,1,-0.1579780461183081,-0.2156717661183081,-0.5476630461183081,-0.1362449545868359,-0.1507545465868359,-0.2209124585868359,0,1.0
368,368,368,4.2009993,0.450558,-0.4735864,-9.799455,-0.06373548,-0.15529154,0.015036376,-14.11993,19.06427,43.489777,1,-0.1078608742950564,-0.1656811062950564,-0.4983040322950565,0.0455360896285509,0.0320886046285509,-0.038905182371449,0,1.0
369,369,369,4.21,0.37994003,-0.46144193,-9.806634,-0.052004896,-0.16125007,-0.0027469622,-14.11993,19.06427,43.489777,0,0.3402490933023253,0.2823152143023252,-0.0509630996976747,-0.0554095969554813,-0.0672143529554813,-0.1418539269554813,0,1.0
370,370,370,4.218999,0.3798021,-0.46141815,-9.806648,0.001707515,-0.10805344,-0.0007486283,-13.93092,19.062849,43.567337,1,-0.2008661676663251,-0.2588988476663251,-0.592865107666325,0.1437758056058039,0.1336279992058039,0.0554013152058039,0,1.0
371,371,371,4.2279997,0.86733454,-0.42356128,-9.7190895,0.03636279,0.0049966467,0.0032168436,-14.119737,19.191402,43.563923,1,-0.1695199113508273,-0.2276376003508273,-0.5623215603508274,-0.0153443724003093,-0.0245757389003093,-0.1048296839003093,0,1.0
372,372,372,4.2370005,1.3527002,-0.38457894,-9.630478,0.059024006,0.08168687,-0.0052984953,-13.995091,19.126987,43.491856,1,-0.0811479153171169,-0.1393601243171169,-0.4747433043171169,0.0587887593782624,0.0469536403782624,-0.0280503836217375,0,1.0
373,373,373,4.246999,1.3536499,-0.38450268,-9.630306,0.08903719,0.15292582,-0.0091399215,-14.119737,19.191402,43.563923,1,0.0719719177899919,0.0135958077899918,-0.3226440462100081,-0.0400326894862205,-0.0555290194862204,-0.1233162874862205,0,1.0
374,374,374,4.256999,1.0231503,-0.41394687,-9.768075,0.065230295,0.1218785,-0.00798684,-14.119737,19.191402,43.563923,0,0.1032250595824133,0.0446976815824133,-0.2921301584175866,-0.1648521011491628,-0.1826471451491628,-0.2463706481491628,0,1.0
375,375,375,4.2650003,0.6920811,-0.4421341,-9.90435,0.0075263362,0.022492416,-0.0077844625,-14.244574,19.128687,43.561844,1,-0.0040967167588421,-0.0572300517588421,-0.3913826567588422,-0.0725630909141579,-0.0672840139141579,-0.1484133789141579,1,1.0
376,376,376,4.273,0.6914434,-0.4421884,-9.904612,-0.014148755,-0.046762854,-0.004923454,-14.18391,19.25554,43.48844,1,-0.0467039877062947,-0.0998051037062947,-0.4344493437062947,0.0154528716242575,0.0209156596242575,-0.0618471833757424,0,1.0
377,377,377,4.283,0.6914333,-0.44218928,-9.904615,-0.07939345,-0.15035188,0.0031611691,-14.121462,19.127962,43.415367,1,-0.2114705433177755,-0.2645038193177755,-0.6001605853177756,0.002473146889502,0.008323333689502,-0.0776641041104979,0,1.0
378,378,378,4.293,0.38041288,-0.5573395,-9.650399,-0.09100648,-0.16610022,-0.003844307,-14.121462,19.127962,43.415367,0,0.0901795601587599,0.0372111111587599,-0.29923169884124,-0.0348908649557849,-0.0262559234557849,-0.1149366243557849,0,1.0
379,379,379,4.301999,0.37980306,-0.55756205,-9.6498995,-0.050925132,-0.072405785,0.0015091228,-14.056843,19.000216,43.49094,1,0.1008799354791278,0.0480024814791278,-0.2892504045208721,-0.2259141996505963,-0.2143217480505963,-0.3056446690505963,0,1.0
380,380,380,4.311,0.37980184,-0.5575625,-9.6498995,-0.009789572,0.023734964,-0.0041583884,-13.994006,19.126904,43.566174,1,-0.0962145348357216,-0.1489742078357216,-0.4870607578357216,-0.0001866102437423,0.0144038157562576,-0.0795347362437423,0,1.0
381,381,381,4.3189993,1.3460512,-0.38586405,-9.844315,0.037987128,0.10718324,-0.0054901564,-14.056204,19.06374,43.565174,1,0.2060115967453155,0.1533792707453156,-0.1855459192546844,-0.0142047798889666,-0.0011063863889666,-0.0928896935889666,0,1.0
382,382,382,4.3289995,1.3536351,-0.3845053,-9.845832,0.09117974,0.15818559,-0.0046698963,-14.056204,19.06374,43.565174,0,0.1802469594458201,0.12772104944582,-0.2120156645541799,-0.127580415378554,-0.117036941178554,-0.2056062163785539,0,1.0
383,383,383,4.3380003,1.3536499,-0.38450265,-9.845834,0.09892002,0.11880966,0.00287358,-14.183018,19.128325,43.48861,1,0.1217332327864357,0.0692905607864357,-0.2712290892135642,-0.2137429162264107,-0.2057977065264107,-0.2912312002264107,0,1.0
384,384,384,4.4229994,1.2173108,-0.42296043,-9.885022,0.08946634,0.08691895,0.015191192,-14.181487,19.064632,43.56301,1,-0.0179606179070314,-0.0736151589070314,-0.4086386489070314,0.040995639764022,0.032041447364022,-0.0326599216359779,0,1.0
385,385,385,4.430999,0.720953,-0.49536914,-9.753073,0.09061641,-0.007120321,0.012067806,-14.245659,19.12877,43.487526,1,0.1510453945213037,0.0953039485213037,-0.2402958814786962,0.080594653005806,0.070814143605806,0.006865449605806,0,1.0
386,386,386,4.439,0.55541843,-0.5190584,-9.708767,0.078426085,-0.084387824,0.0028678917,-14.1223545,19.255178,43.4152,1,-0.2069983280892018,-0.2628202050892018,-0.5990036500892018,-0.187980996526179,-0.196066569026179,-0.261811091026179,0,1.0
387,387,387,4.447999,0.5550951,-0.5191047,-9.708681,0.026381176,-0.101776466,-0.0042189006,-14.1223545,19.255178,43.4152,0,-0.0014398663325775,-0.0588363493325775,-0.3901554993325776,0.0517548908132346,0.0324847790932346,-0.0361725049067653,1,1.0
388,388,388,4.457999,0.5550945,-0.5191048,-9.708681,-0.048860103,-0.08206905,-0.011802548,-13.995984,19.254204,43.491688,1,0.1084272751791934,0.0508641821791934,-0.2810802978208065,0.0084414093522903,-0.0093142200477096,-0.0796086500477097,0,1.0
389,389,389,4.467,0.8855585,-0.36557657,-9.865125,-0.071850404,-0.007968153,-0.005650658,-14.056009,19.190872,43.639328,1,-0.1422447104994604,-0.1999735354994604,-0.5325511214994605,-0.0353123497321988,-0.0544630241321988,-0.1248123441321988,0,1.0
390,390,390,4.4749994,0.88620156,-0.36527437,-9.865429,-0.08686589,0.05345406,-0.0073862923,-14.117312,19.000494,43.638496,1,0.3360633482522961,0.2781555222522961,-0.0550551577477039,0.041167256020096,0.020557114020096,-0.0497929339799039,0,1.0
391,391,391,4.4849997,0.8862029,-0.36527377,-9.865429,-0.0495122,0.07181667,-0.007192015,-14.117312,19.000494,43.638496,0,-0.0553169873065606,-0.1134164373065606,-0.4472604973065606,-0.0770141550373337,-0.0989717588373337,-0.1693930608373337,0,1.0
392,392,392,4.4940004,1.0204304,-0.57350516,-9.633998,-0.0008351809,0.07864306,-0.0075931624,-14.179955,19.00094,43.637413,1,0.2677189649393192,0.2094200719393192,-0.1250544530606808,-0.0002024609445411,-0.0220786891445411,-0.0912985991445411,0,1.0
393,393,393,4.5029993,1.0225375,-0.57678497,-9.630312,0.045595333,0.020228012,-0.00061415375,-14.181932,19.12824,43.562927,1,0.0930399959611012,0.0345484279611012,-0.3005401920388987,0.057424667889984,0.036485283089984,-0.0307644029100159,0,1.0
394,394,394,4.512,1.0225415,-0.57679135,-9.630306,0.07646347,-0.038283583,0.0011979007,-14.118845,19.064186,43.56409,1,-0.4641480255172856,-0.5228239275172856,-0.8585089775172856,-0.0338187106585561,-0.0538518753585561,-0.1191320533585561,0,1.0
395,395,395,4.5220003,0.6452135,-0.5023171,-9.85812,0.09124009,-0.061183058,0.0084989155,-14.056649,19.127348,43.56509,1,0.1896945545813476,0.1308427025813476,-0.2054282574186524,0.0397956399427699,0.0207906249427699,-0.04511322305723,0,1.0
396,396,396,4.530999,0.6330262,-0.49988064,-9.865416,0.052652467,-0.0837325,0.0046979343,-14.056649,19.127348,43.56509,0,0.1510138731123263,0.0919958781123263,-0.2448795918876736,0.0982821069319975,0.0803509991319975,0.0119341031319975,0,1.0
397,397,397,4.5390005,0.63300246,-0.4998759,-9.865429,0.007510535,-0.046200793,-0.012425522,-14.057289,19.063824,43.490856,1,0.0213818532307852,-0.0332967717692147,-0.3677753167692148,-0.0641846679264316,-0.0634022529264316,-0.1481699689264316,1,1.0
398,398,398,4.5479994,0.956959,-0.2644724,-9.745572,-0.040575787,-0.016315807,-0.016307946,-14.117312,19.000494,43.638496,1,0.2236994830018422,0.1690308170018422,-0.1662194129981578,-0.1880739348223124,-0.1875270538223124,-0.2732246058223124,0,1.0
399,399,399,4.557,1.0029745,-0.23073767,-9.728307,-0.066830896,0.01543378,-0.009918542,-14.179508,18.937334,43.637497,1,0.0580539218520968,0.0033749458520968,-0.3326343541479031,0.0824984934614397,0.0796556524614397,-0.0033139715385603,0,1.0
400,400,400,4.5670004,1.0030645,-0.23067178,-9.728273,-0.058155727,0.055705972,0.0026459026,-14.054671,19.000048,43.63958,1,-0.2174511183127289,-0.2721707393127289,-0.6089144943127289,0.0544888714526828,0.0483112444526828,-0.0319414455473171,0,1.0
401,401,401,4.5759993,0.8965499,-0.42356128,-9.777871,-0.04222908,0.034070943,0.0031075059,-14.054671,19.000048,43.63958,0,0.1989459045002734,0.1441573645002734,-0.1932977254997266,-0.0698308749767061,-0.0783525194767061,-0.1566649644767061,0,1.0
402,402,402,4.585,0.7890285,-0.6148747,-9.826147,-0.0065875296,0.034957357,0.0010582629,-14.116866,18.936888,43.63858,1,-0.0926113260845225,-0.1474674250845225,-0.4856341350845226,0.0362689897784587,0.0298597087784587,-0.0500228882215412,0,1.0
403,403,403,4.593999,0.7888185,-0.6152484,-9.8262415,0.0362835,0.007592619,-0.004655095,-14.118845,19.064186,43.56409,1,0.0453330013116762,-0.0095705946883237,-0.3484638846883238,-0.1054418104715497,-0.1095880394715497,-0.1911681004715497,0,1.0
404,404,404,4.603999,0.68686837,-0.55786294,-9.7236805,0.052835323,-0.029532103,0.0054101516,-14.11993,19.06427,43.489777,1,0.0202094207810014,-0.0347261882189985,-0.3746117782189986,-0.0047602239058925,-0.0060455499058925,-0.0897046399058925,0,1.0
405,405,405,4.6139994,0.6525465,-0.53837174,-9.689154,0.06562285,-0.07186461,0.0026703386,-14.11993,19.06427,43.489777,0,0.1057238287698825,0.0507844937698825,-0.2898583922301174,-0.1602731708582876,-0.1598275908582876,-0.2444512118582876,0,1.0
406,406,406,4.623,0.6524795,-0.5383337,-9.689086,0.0429187,-0.06740845,0.0072079543,-13.993114,18.999685,43.56634,1,-0.2943556678524476,-0.3492835288524477,-0.6906920838524477,0.0690333522739597,0.0711239992739597,-0.0143891607260402,0,1.0
407,407,407,4.631999,0.6524794,-0.53833365,-9.689086,0.0020185462,-0.02883518,-0.009708764,-14.057289,19.063824,43.490856,1,-0.1318591099521275,-0.1909736529521275,-0.5252159429521276,0.0201775649479911,-0.0024421063020088,-0.0789265263020088,1,1.0
408,408,408,4.6400003,1.060699,-0.21208358,-9.923754,-0.026313392,0.011246897,-0.007175412,-14.056204,19.06374,43.565174,1,-0.1744790305258474,-0.2338136505258474,-0.5687382005258474,-0.2014091622896421,-0.2278426890896421,-0.302901730089642,0,1.0
409,409,409,4.6500006,1.061494,-0.21144402,-9.924211,-0.06769425,0.07078261,-0.013625998,-14.056204,19.06374,43.565174,0,-0.0335654792797511,-0.0931561852797511,-0.4287494392797511,-0.0449863126418116,-0.0754504310418116,-0.1490021050418116,0,1.0
410,410,410,4.6589994,1.0614954,-0.21144278,-9.924211,-0.067241736,0.041699715,-0.011354652,-14.118204,19.12771,43.63833,1,-0.2685311117178126,-0.3284137547178126,-0.6646624847178126,0.0459863513571639,0.0115897310571639,-0.060529497942836,0,1.0
411,411,411,4.668,0.8296075,-0.55486786,-9.57429,-0.039966438,0.016252862,-0.008059121,-14.117312,19.000494,43.638496,1,-0.1030011042199029,-0.1631943942199029,-0.5000860542199029,-0.0407660261649538,-0.0748331009649538,-0.1455882609649538,0,1.0
412,412,412,4.6780005,0.82777554,-0.5575573,-9.571529,0.006579668,-0.04472119,-0.00956369,-14.118399,19.000578,43.564175,1,-0.178689946812404,-0.239183752812404,-0.576706212812404,-0.1068325114086629,-0.1395447545086629,-0.2089606755086629,0,1.0
413,413,413,4.6869993,0.82777196,-0.5575625,-9.571526,0.049119763,-0.07907494,0.016381288,-14.118399,19.000578,43.564175,0,-0.0662155632470025,-0.1269977072470025,-0.4651388172470025,0.0080840170657672,-0.0232855729342327,-0.0913321489342327,0,1.0
414,414,414,4.697999,0.6345335,-0.57665056,-9.960345,0.049781274,-0.046489492,0.005486556,-14.118399,19.000578,43.564175,0,0.1538585658064638,0.0927127998064638,-0.2462496901935361,-0.0230557033398163,-0.0520783631098163,-0.1223809511098163,0,1.0
415,415,415,4.707,0.6330053,-0.57679105,-9.96339,0.045910206,-0.03864918,0.008567381,-13.91656,19.062717,43.596344,1,-0.2742456433373598,-0.3356435733373598,-0.6752552833373597,0.0571350918203914,0.0301144841203914,-0.0438436078796085,0,1.0
416,416,416,4.7160006,0.63300246,-0.57679135,-9.963397,0.024470279,-0.012060879,-0.008795576,-13.979592,19.12677,43.59518,1,-0.1339053951345952,-0.1955377101345952,-0.5358313751345952,0.1209892536652233,0.0959184222152233,0.0183421202152233,0,1.0
417,417,417,4.724,0.9252329,-0.3244875,-9.651201,-0.006992567,-0.016101534,-0.008522025,-14.041287,19.0,43.594265,1,0.1536255959741542,0.0949366879741542,-0.2434529920258458,-0.124879380167325,-0.139518876167325,-0.233616555167325,1,1.0
418,418,418,4.734,0.9445959,-0.30762014,-9.630345,-0.037081964,0.031047706,-0.005331501,-14.041287,19.0,43.594265,0,-0.0441615962670242,-0.1029924982670242,-0.4422156882670242,-0.0773308045131198,-0.0942492733131198,-0.1853718083131198,0,1.0
419,419,419,4.742999,0.9446337,-0.3075872,-9.630306,-0.06651847,0.041067366,-0.0117335655,-13.977616,18.99947,43.669594,1,-0.159919882447012,-0.218913163447012,-0.558943103447012,0.0187189008487775,-0.0004377673512224,-0.0886007993512224,0,1.0
420,420,420,4.752,0.7232355,-0.44233948,-9.819047,-0.07320449,0.03215379,0.0004982692,-14.163845,18.937117,43.740677,1,-0.3315631628685626,-0.3907373838685625,-0.7315496298685626,0.0104105252961394,-0.0101030893038605,-0.0966957323038605,0,1.0
421,421,421,4.7599993,0.69149536,-0.4613809,-9.845783,-0.043871917,-0.028517555,-0.009445739,-14.03931,18.872702,43.66868,1,-0.2393210689384512,-0.2986771089384513,-0.6402761889384513,-0.2586967641097623,-0.2785700019097623,-0.3668488789097623,0,1.0
422,422,422,4.7699995,0.6914334,-0.46141803,-9.845834,-0.006117349,-0.06626287,0.016018484,-14.03931,18.872702,43.66868,0,-0.0213703090965145,-0.0809020560965145,-0.4233033760965146,0.1934182226613587,0.1742481009613587,0.0842559589613587,0,1.0
423,423,423,4.864999,0.69204193,-0.4812479,-9.846447,0.042882588,-0.044917244,0.0058059455,-13.915668,18.935501,43.59651,1,-0.2548905395382644,-0.3145915455382644,-0.6578104155382645,-0.0275500454770786,-0.0459460014370786,-0.1376441814370786,0,1.0
424,424,424,4.873,0.6914344,-0.4998395,-9.845837,0.043028027,-0.018840078,0.007989107,-13.97934,18.936031,43.521183,1,0.2908888827410344,0.2310272917410344,-0.1130250032589655,0.082285986513288,0.064993375773288,-0.0285137372267119,0,1.0
425,425,425,4.881999,0.6914333,-0.4998758,-9.845837,0.061114673,-0.0053765913,-0.0056029735,-13.91503,18.999023,43.670673,1,0.0039446698854973,-0.0560677291145026,-0.4009696291145027,-0.1377613666900803,-0.1539896787400803,-0.2492801387400803,0,1.0
426,426,426,4.8919992,0.6914333,-0.4998759,-9.845837,0.06160672,-0.023983447,-0.00042923476,-13.855061,19.062355,43.52318,1,0.0120369194508596,-0.0481169745491403,-0.3938843685491404,0.0282973298827459,0.0130712818127459,-0.083974930187254,0,1.0
427,427,427,4.901,0.98131466,-0.46172798,-9.709762,0.01212371,0.038121805,0.0012179748,-13.855061,19.062355,43.52318,0,0.1924123540544145,0.1321211140544145,-0.2145163059455854,-0.0054634062281377,-0.0209236536281377,-0.1168147106281377,1,1.0
428,428,428,4.9089994,0.9835833,-0.46141875,-9.708683,-0.023726761,0.041347906,-0.0036929413,-14.040203,18.999916,43.66851,1,-0.0765398992530072,-0.1350637202530072,-0.4734493802530072,0.0446541142853558,0.0328618832853558,-0.0476175657146441,0,1.0
429,429,429,4.918,0.9835876,-0.46141812,-9.708681,-0.06446538,0.019608557,-0.0018039354,-13.978254,18.935947,43.595432,1,0.0475864247617944,-0.0110455652382055,-0.3501474552382055,0.0099171706365427,-0.0023189023634572,-0.0809977273634572,0,1.0
430,430,430,4.926999,0.6550756,-0.30879834,-9.630927,-0.060208865,-0.060032845,-0.0004856726,-13.975638,18.872171,43.744007,1,-0.1078054793055338,-0.1665514763055338,-0.5063563563055339,0.0296556767117978,0.0164838327117978,-0.0611589612882021,0,1.0
431,431,431,4.9369993,0.65248436,-0.3075895,-9.630306,-0.049336404,-0.042335678,-0.0013368642,-13.975638,18.872171,43.744007,0,-0.1003767778248164,-0.1592459238248164,-0.4997456338248164,-0.0562686699119893,-0.0704554425119893,-0.1472239355119893,0,1.0
432,432,432,4.946,0.6524794,-0.30758715,-9.630306,0.0026306596,-0.024283169,0.0023566491,-13.977616,18.99947,43.669594,1,0.0059832865238366,-0.0530179264761633,-0.3942046064761633,-0.0609264685819316,-0.0760857385819316,-0.1519709585819316,0,1.0
433,433,433,4.954999,0.780373,-0.46990585,-9.887549,0.023777146,-0.0038204996,0.00011340927,-14.03931,18.872702,43.66868,1,-0.0141326013579529,-0.0732726703579529,-0.4151412303579529,0.2322895829832909,0.2169144609832909,0.1407634789832909,0,1.0
434,434,434,4.9639997,0.7888016,-0.48062602,-9.904582,0.058136433,-0.027380414,0.00131996,-13.850467,18.87128,43.746166,1,-0.0678704155586374,-0.1271462535586374,-0.4697069835586374,-0.0441332581845318,-0.0589342166845318,-0.1365914056845318,0,1.0
435,435,435,4.9749994,0.78881806,-0.480647,-9.904615,0.058512975,0.027591022,-0.0012948067,-13.850467,18.87128,43.746166,0,0.1227737039408931,0.0633244379408931,-0.2801800520591069,0.0634261211553371,0.0493026741553371,-0.0303224318446628,0,1.0
436,436,436,4.984,0.8265927,-0.48068455,-9.752803,0.07050249,0.019119432,-0.008574559,-13.853975,19.062271,43.597427,1,-0.0246329335994578,-0.0842074455994578,-0.4284323355994578,-0.0796760082714188,-0.0934128462714188,-0.1734984932714188,0,1.0
437,437,437,4.985999,0.82762456,-0.4806517,-9.748484,0.048536643,0.014561274,-0.0068664267,-13.913498,18.935333,43.745003,1,-0.4222932364715411,-0.4819087874715411,-0.8263738074715412,0.1003961049538891,0.0867608052538891,0.0067702562538891,0,1.0
438,438,438,4.9940004,0.8277887,-0.63209325,-9.767183,-0.020658826,-0.03561792,0.010438518,-13.849382,18.871197,43.82041,1,-0.1146843464488665,-0.1682662994488665,-0.5034059994488665,0.0939694551934444,0.1071048435934444,0.0409358851934444,1,1.0
439,439,439,5.0029993,0.82777196,-0.6344733,-9.76746,-0.0011669558,-0.020988656,0.0005442719,-13.911521,18.808033,43.819416,1,0.0085518135469646,-0.0449014464530354,-0.3806396064530354,0.1841025310750663,0.1995690340750663,0.1327312550750664,0,1.0
440,440,440,5.012,0.82777196,-0.63447803,-9.76746,0.052675847,-0.02788916,0.01465795,-13.788326,18.934443,43.747166,1,-0.1024254139007162,-0.1557289669007162,-0.4920716029007163,-0.1321686081829415,-0.1143695985829415,-0.1818638761829415,0,1.0
441,441,441,5.019,0.80861837,-0.44521257,-9.6903305,0.05781017,-0.009249577,0.0057079946,-13.851998,18.934973,43.67184,1,0.1731764757820499,0.1200393437820498,-0.2169108362179501,0.0077262994622093,0.0264029844622093,-0.0407769165377906,0,1.0
442,442,442,5.0269995,0.80830014,-0.4422365,-9.689105,0.069434404,0.015552482,0.02216384,-13.913498,18.935333,43.745003,1,-0.0370407511694378,-0.0900658911694378,-0.4274173071694378,-0.0287266276580948,-0.0100721981580948,-0.0766442516580948,1,1.0
443,443,443,5.0339994,0.808295,-0.44218937,-9.689086,0.07860098,0.010974147,0.011510388,-13.913498,18.935333,43.745003,0,-0.3578995823674186,-0.4122074153674187,-0.7428527753674187,-0.1444290345594931,-0.1374146245594932,-0.1951861245594932,0,1.0
444,444,444,5.043,0.6741055,-0.19613855,-9.515518,0.061892927,0.0032742752,0.01593944,-13.789858,18.998133,43.672836,1,-0.41857602743237,-0.47282629743237,-0.8039838524323699,0.0047201249514151,0.0099324599514151,-0.0457001720485848,0,1.0
445,445,445,5.05,0.6719899,-0.19227523,-9.512787,0.036236405,0.050636142,-0.010749353,-13.852445,18.998579,43.671757,1,-0.1660070643054678,-0.2202316723054678,-0.5517172573054678,0.1218779767260559,0.1252168982260559,0.0714937397260559,0,1.0
446,446,446,5.0579996,0.67195636,-0.19221404,-9.512744,0.026278574,0.051460687,0.010780734,-14.039757,18.93631,43.668594,1,-0.1302952794546265,-0.1845025294546265,-0.5164587694546265,0.1178723434612568,0.1183864174612568,0.0675118024612568,0,1.0
447,447,447,5.0649996,0.57000655,-0.13482773,-9.630612,-0.0069154124,0.05696674,-0.003072898,-14.039757,18.93631,43.668594,0,0.1058168990505654,0.0516068920505654,-0.2806496979494345,0.086894352911093,0.0853979549110929,0.035886969911093,0,1.0
448,448,448,5.072999,0.5356847,-0.115336545,-9.669416,-0.020624131,0.0714602,-0.0021956156,-13.913944,18.99894,43.74492,1,0.510576018557677,0.456337680557677,0.123638880557677,-0.0424323891861106,-0.0472287358861106,-0.0960034538861106,0,1.0
449,449,449,5.079999,0.53561854,-0.115299,-9.669493,0.0061905687,0.08939762,-0.00569243,-14.040203,18.999916,43.66851,1,-0.1553029123605374,-0.2095765513605375,-0.5425666613605375,-0.200496074741381,-0.207468943741381,-0.255801073741381,0,1.0
450,450,450,5.0880003,0.60393906,-0.62020653,-9.738224,0.02986923,0.0386645,-0.0063667214,-14.039757,18.93631,43.668594,1,0.1146809938702718,0.0603329578702718,-0.2730906221297281,-0.2298319269795028,-0.2380783393795028,-0.2866490123795028,0,1.0
451,451,451,5.0959997,0.61337554,-0.6910403,-9.747717,0.054495215,0.06820863,-0.009276685,-13.978508,19.126686,43.669426,1,-0.00410915702395,-0.05849981102395,-0.39221945102395,-0.0369482715957491,-0.0428950936957491,-0.0930109866957491,0,1.0
452,452,452,5.1029997,0.61352503,-0.6921624,-9.747867,0.081695095,0.037638377,-0.022825366,-13.978508,19.126686,43.669426,0,-0.1437717475490759,-0.1954703275490759,-0.525040957549076,0.0656865272426831,0.0758935531426831,0.0195712411426831,1,1.0
453,453,453,5.110999,0.61352533,-0.6921646,-9.747867,0.071341805,0.04144354,-0.017262224,-13.979592,19.12677,43.59518,1,-0.3738975662671479,-0.4255278882671479,-0.755441334267148,0.1622991883666207,0.1748415433666207,0.1168959883666207,0,1.0
454,454,454,5.12,1.0209488,-0.53893924,-9.864975,0.031033957,0.046197433,-0.025106374,-14.103236,19.06397,43.667347,1,-0.3155521449692899,-0.3670667749692898,-0.6975029749692898,0.0491380966188361,0.0621151705188361,0.0040299129188361,0,1.0
455,455,455,5.1949987,0.8693127,-0.30052653,-9.792107,0.079832256,0.019587532,0.0029406063,-14.107382,19.191439,43.444443,1,-0.0170978689706046,-0.0681980669706046,-0.3935439309706046,-0.0984060594362282,-0.0928181114362282,-0.1234212734362282,0,1.0
456,456,456,5.1379995,1.0225415,-0.53833365,-9.865429,-0.04829096,0.025484938,-0.023161119,-14.165823,19.064415,43.666264,0,0.2650222656449216,0.2137432386449215,-0.1177373513550784,-0.1767168419138603,-0.1635040400138603,-0.2214845853138603,0,1.0
457,457,457,5.1449995,1.0609058,-0.40585345,-9.7883,-0.06158709,0.044730652,-0.021489264,-14.105406,19.064138,43.518852,1,-0.0707612476426897,-0.1219236946426897,-0.4539231646426898,0.1019823980380573,0.1143044462380573,0.0573372815380573,0,1.0
458,458,458,5.152999,1.0614862,-0.40376467,-9.787074,-0.045281965,0.018694459,-0.013363336,-14.166461,19.00089,43.592106,1,-0.0729176911159924,-0.1240091731159924,-0.4563472731159924,-0.2209657959104632,-0.2096339152104632,-0.2655361379104632,0,1.0
459,459,459,5.1619997,1.0614954,-0.40373155,-9.787055,-0.021856757,-0.009950353,0.013116657,-14.105212,19.19127,43.592934,1,0.0529910862199073,0.0019950992199073,-0.3308390567800927,0.209795198237376,0.2196900713673761,0.165362316237376,0,1.0
460,460,460,5.1710005,0.8889608,-0.5173209,-9.690637,0.0648243,0.0075331745,0.011250262,-14.105212,19.19127,43.592934,0,0.2934216840144201,0.2425120540144201,-0.0908055859855799,0.0029097564130704,0.0126561239630704,-0.0406436985869295,0,1.0
461,461,461,5.179,0.88620824,-0.5191013,-9.68909,0.09764069,-0.006865733,0.013221224,-14.167546,19.000975,43.517857,1,0.1236759852086753,0.0728567082086753,-0.2609375017913247,-0.051009419855439,-0.040692260345439,-0.093276861855439,0,1.0
462,462,462,5.1869993,0.8862029,-0.5191048,-9.689086,0.11841354,0.019106824,-0.0073417583,-14.10649,19.064222,43.44461,1,-0.056833082167599,-0.1079700941675991,-0.4331307041675991,-0.1564626553868834,-0.1502279743868834,-0.1813768883868834,1,1.0
463,463,463,5.1949987,0.8693127,-0.30052653,-9.792107,0.079832256,0.019587532,0.0029406063,-14.107382,19.191439,43.444443,1,-0.2377952428681167,-0.2888954408681167,-0.6142413048681168,0.0207667001391066,0.0263546481391066,-0.0042485138608933,0,1.0
464,464,464,5.2019987,0.866731,-0.26919073,-9.806621,0.022277582,0.017027415,0.0024494291,-14.168438,19.128191,43.51769,1,-0.0357890543157495,-0.0868510753157495,-0.4124687353157495,-0.1360946163126414,-0.1332152643126414,-0.1630117503126414,0,1.0
465,465,465,5.211999,0.8667259,-0.2691295,-9.806648,-0.03388646,0.041149963,0.00039794255,-14.168438,19.128191,43.51769,0,-0.4035548734950939,-0.4546033084950939,-0.7804854884950938,-0.019526394149365,-0.019383778149365,-0.048381544149365,0,1.0
466,466,466,5.221999,0.75355405,-0.25053898,-9.749742,-0.059563152,0.027436575,-0.0065482412,-14.230577,19.06503,43.51669,1,-0.3321123195639975,-0.3831712665639975,-0.7093112865639974,0.0289702673058581,0.0265371873058581,-0.0018086126941418,0,1.0
467,467,467,5.2300005,0.7498713,-0.24990177,-9.74787,-0.048616085,0.032449502,0.00041374314,-14.229938,19.128553,43.590855,1,-0.3969304115055472,-0.4480221885055472,-0.7744149335055472,0.0996616378996338,0.0948096433996338,0.0669921833996338,0,1.0
468,468,468,5.238,0.74986416,-0.24990052,-9.747867,-0.013759186,0.00087717443,0.009783838,-14.227515,18.937647,43.66535,1,-0.1333954092722573,-0.1845414582722573,-0.5111823732722574,-0.0616374116435789,-0.0688409476435789,-0.0961717996435789,0,1.0
469,469,469,5.246999,0.6477623,-0.586556,-9.765165,0.04844214,0.005114373,0.0014697174,-14.227515,18.937647,43.66535,0,0.0447938025244381,-0.0064253204755618,-0.3333113544755618,0.1249171396120341,0.1168734316120341,0.0891837496120341,0,1.0
470,470,470,5.256999,0.6330312,-0.63438445,-9.767456,0.09326979,0.040297307,0.008709004,-14.294694,19.129168,43.441284,1,0.1971660829174785,0.1458867379174785,-0.1812590720825215,0.0483733840989653,0.0430367173989653,0.0129882883989652,0,1.0
471,471,471,5.263999,0.6330028,-0.6344766,-9.76746,0.09717323,0.02759481,0.00038815587,-14.167799,19.191715,43.591854,1,-0.0714638347085227,-0.1227698467085227,-0.4501006967085227,-0.0915180065719687,-0.0950726078719687,-0.1267025438719687,0,1.0
472,472,472,5.273,0.63300246,-0.63447803,-9.76746,0.08859902,0.081562616,0.015176697,-14.292971,19.192608,43.58969,1,-0.280470948853589,-0.331797173853589,-0.659423368853589,-0.0057663102606295,-0.0067198608606295,-0.0407153198606295,1,1.0
473,473,473,5.2799997,0.8857107,-0.55771506,-9.884796,0.011190031,0.043371767,-0.007975221,-14.292971,19.192608,43.58969,0,0.0129775589024287,-0.0426982890975712,-0.3684004540975711,-0.0569469780599367,-0.0812453710599366,-0.1265318620599367,0,1.0
474,474,474,5.287999,0.8861951,-0.5575649,-9.88502,-0.020161506,0.090747766,-0.008705227,-14.294949,19.319908,43.515274,1,0.2405174502615158,0.1846968822615158,-0.1412796437384841,0.0340874810865803,0.0101433870865803,-0.0360297329134196,0,1.0
475,475,475,5.297,0.8862029,-0.55756253,-9.885022,-0.09289303,0.044052813,-0.00878377,-14.356004,19.256662,43.588524,1,0.3031598818517916,0.2471264038517916,-0.0792718561482083,0.0530590846709796,0.0296993806709796,-0.0178622503290203,0,1.0
476,476,476,5.305999,0.76980233,-0.30856833,-9.865511,-0.11311968,0.05241232,0.0026618787,-14.478309,19.003036,43.660942,1,-0.2062096089066115,-0.2624603279066115,-0.5892910029066115,0.247272064799244,0.2222249957992439,0.173713206799244,0,1.0
477,477,477,5.312999,0.76934195,-0.30758905,-9.865429,-0.09330202,0.013944774,-0.003088728,-14.415722,19.00259,43.662025,1,0.0122649934381656,-0.0442192975618343,-0.3714909225618343,0.1278394544129438,0.1009942134129438,0.0515092144129438,0,1.0
478,478,478,5.321,0.7693411,-0.30758718,-9.865429,-0.039297238,0.028705908,0.0129774185,-14.415722,19.00259,43.662025,0,0.2184415551690968,0.1617927741690968,-0.1657778108309031,-0.052876058969647,-0.080856952969647,-0.131021205969647,0,1.0
479,479,479,5.3289995,0.75018746,-0.7051028,-9.7690115,0.02950402,0.04717998,0.014116116,-14.354219,19.002228,43.58886,1,0.4311574988888608,0.3742584878888608,0.0462296678888607,-0.1365792285935288,-0.1631032925935288,-0.2150314035935288,0,1.0
480,480,480,5.3380003,0.74986476,-0.7113812,-9.767464,0.092728466,0.0512929,0.03556001,-14.294694,19.129168,43.441284,1,0.2939679988763516,0.2368453678763515,-0.0916608221236484,-0.0050354522663949,-0.0282051525663949,-0.0823579502663949,0,1.0
481,481,481,5.346999,0.74986416,-0.7113935,-9.767462,0.09559282,0.041946076,0.011786016,-14.4198675,19.130058,43.43912,1,0.164698002396412,0.107381704396412,-0.2216218856035879,-0.0508563170396291,-0.0707404048396291,-0.1271216090396291,0,1.0
482,482,482,5.3550005,0.88198036,-0.5251514,-9.767499,0.079268076,0.07722644,0.013323447,-14.4198675,19.130058,43.43912,0,-0.2769326976371165,-0.3328956236371165,-0.6611072336371164,0.0058422018735593,-0.0053720315264406,-0.0785726821264406,1,1.0
483,483,483,5.363,0.8861369,-0.51919925,-9.767462,0.020632586,0.053769104,0.0074844174,-14.5435095,19.067259,43.511284,1,-0.1000971761591201,-0.1561265881591201,-0.4847781881591201,0.2139083634972647,0.2029472184972647,0.1294673324972647,0,1.0
484,484,484,5.37,0.88620275,-0.51910496,-9.767462,-0.057400737,0.079611115,0.015013655,-14.5435095,19.067259,43.511284,1,0.1286758165423469,0.0725494895423469,-0.2567653604576531,0.1626642454788359,0.1520901957788359,0.0781605874788359,0,1.0
485,485,485,5.3789988,0.8862409,-0.29560667,-9.729536,-0.10745527,0.031864125,0.006584023,-14.60565,19.004095,43.510284,1,-0.0477172044232872,-0.1039411154232872,-0.4339212454232872,-0.1228705325085001,-0.1345799295085001,-0.2081816565085001,0,1.0
486,486,486,5.388999,0.88620293,-0.28837243,-9.728275,-0.104506925,0.046609282,0.008450711,-14.60565,19.004095,43.510284,0,-0.0342020855203691,-0.0905413815203692,-0.4211798815203691,-0.0002292267285914,-0.0141430164285914,-0.0868557907285914,0,1.0
